Participant,Group,Tot_session,Inc_session,Game,BonusGames,TotalTrials,Perc_ActSelTrials,Perc_correct,CorrResponses,hits,go_trials,go_omissions,go_omissions_all,go_error,P_go_errors,ActSel_trials,corr_actselect_trials,Incorr_actselect_trials,miss_actselect_trials,wrong_actselect_trials,P_go_omission,P_Hit,P_miss_ActSelTrial,P_corr_actselect,P_val_adjusted,dprime,dprime_bias,mean_SSD,SSD_std,mean_SSRT1,mean_SSRT2,mean_SSRT3,SSRT1_nRT,SSRT2_nRT,SSRT3_nRT,SSRT1_error_msg,SSRT2_error_msg,SSRT3_error_msg,FullSSRTExclude,mean_all_go_RT,mean_Corr_go_RT,mean_InCorr_go_RT,mean_all_ActSel_RT,mean_CorrActSel_RT,mean_InCorrActSel_RT,mean_inCorr_Go_RT,std_all_goRT,std_Corr_goRT,std_InCorr_goRT,std_all_ActSel_RT,std_Corr_ActSel_RT,std_InCorr_ActSel_RT,CovVar_all_goRT,CovVar_Corr_goRT,CovVar_InCorr_goRT,CovVar_all_ActSel_RT,CovVar_Corr_ActSel_RT,CovVar_InCorr_ActSel_RT,meanStimDur
21,2,1,1,AB_Driving,0,82,29.2682926829268,64.6341463414634,53,45,58,12,12,1,0.0172413793103448,24,8,16,10,6,0.206896551724138,0.775862068965517,0.666666666666667,0.333333333333333,NaN,0.327565257695694,-0.594509928143305,131.25,93.0316682874591,NaN,NaN,NaN,NaN,NaN,NaN,stop RT larger than all go rt,stop RT larger than all go rt,"stop RT larger than all go rt",1,1089.4120689431,969.317777748889,1505.12307692308,1249.17083333333,1086.2,1330.65625,1505.12307692308,296.775315867164,210.659438974214,119.750039344782,321.36227218499,40.1651945985932,369.259504000584,0.272417870452896,0.217327530568399,0.0795616260097396,0.257260467191229,0.0369777155207081,0.277501799582412,1500
21,2,1,1,Mining,1,102,30.3921568627451,74.5098039215686,76,57,71,7,7,7,0.0985915492957746,31,19,12,0,12,0.0985915492957746,0.802816901408451,0.387096774193548,0.612903225806452,NaN,1.13861989762131,-0.282416031887614,375.806451612903,103.175390914319,NaN,NaN,NaN,NaN,NaN,NaN,stop RT larger than all go rt,stop RT larger than all go rt,"stop RT larger than all go rt",1,1184.98028168732,1166.98771929825,1258.23571427143,1191.17419354839,1222.3631579,1141.79166665833,1258.23571427143,213.475052157475,171.228501331439,334.497891486524,228.422224497097,277.883943014185,107.705300452124,0.180150721034364,0.146726909375195,0.265846762806452,0.191762234049623,0.227333375697927,0.0943300810447702,1500
21,2,2,2,AB_Driving,1,88,30.6818181818182,80.6818181818182,71,56,61,2,2,3,0.0491803278688525,27,15,12,0,12,0.0327868852459016,0.918032786885246,0.444444444444444,0.555555555555556,NaN,1.53167057884446,-0.626124990540367,324.074074074074,97.4387089113048,NaN,NaN,NaN,NaN,NaN,NaN,stop RT larger than all go rt,stop RT larger than all go rt,"stop RT larger than all go rt",1,829.645901639344,809.783928571428,1052.1,974.662962962963,1120.18666666667,792.758333333333,1052.1,256.746962055231,211.705087134984,552.397438444459,242.139556308639,169.5435505226,192.415674367823,0.309465714888617,0.261434043904108,0.525042713092348,0.24843414134927,0.151352944618695,0.242716684615307,1500
21,2,2,2,Chest_Picking,1,106,50,65.0943396226415,69,36,53,7,7,10,0.188679245283019,53,33,20,6,14,0.132075471698113,0.679245283018868,0.377358490566038,0.622641509433962,0.434782608695652,0.778015149940553,-0.0765818219735611,234.905660377358,75.6922575430232,988.894339622641,1011.09433962264,1014.89433962264,1223.8,1246,1249.8,,,"",0,1281.64339622642,1256.84722222222,1334.15294117647,1196.00943396226,1134.8,1297.005,1334.15294117647,157.224597446106,125.626690717518,203.721265205817,222.269268667318,195.235213908762,231.881513470724,0.122674214925171,0.0999538277177383,0.152697085107929,0.185842404211613,0.172043720398979,0.178782281849896,1500
21,2,3,3,AB_Driving,1,86,29.0697674418605,83.7209302325581,72,57,61,3,3,1,0.0163934426229508,25,15,10,2,8,0.0491803278688525,0.934426229508197,0.4,0.6,NaN,1.76293919304118,-0.628122493384792,554,133.790881602597,NaN,NaN,NaN,NaN,NaN,NaN,stop RT larger than all go rt,stop RT larger than all go rt,"stop RT larger than all go rt",1,981.006557377049,954.378947368421,1360.45,1135.252,1263.37333333333,943.07,1360.45,296.45228951095,276.300483258485,356.634271114448,283.181577672936,129.562574328649,345.451000062881,0.302191955070703,0.289508149797676,0.262144342764855,0.249443804259263,0.102552880380027,0.36630472824168,1500
21,2,3,3,Treasure_Collect,1,112,30.3571428571429,69.6428571428571,78,57,78,11,11,10,0.128205128205128,34,21,13,1,12,0.141025641025641,0.730769230769231,0.382352941176471,0.617647058823529,0.445127304653205,0.914448015061641,-0.157917097065153,504.411764705882,155.878569220551,615.188235294117,656.988235294118,656.988235294118,1119.6,1161.4,1161.4,,,"",0,1343.06923076923,1202.32807017544,1725.08095238095,1133.72647058824,1128.49523809524,1142.17692307692,1725.08095238095,1062.96896746528,158.085942668612,2017.54027757045,153.557805340872,154.449203546637,157.994156821522,0.791447635842626,0.131483200459209,1.16953368175902,0.135445197165766,0.136862964355373,0.138327218515236,1500
21,2,4,4,AB_Driving,1,82,30.4878048780488,73.1707317073171,60,47,57,9,9,1,0.0175438596491228,25,13,12,6,6,0.157894736842105,0.824561403508772,0.48,0.52,NaN,0.983042756670704,-0.441367794870618,736,60.4152298679729,NaN,NaN,NaN,NaN,NaN,NaN,stop RT larger than all go rt,stop RT larger than all go rt,"stop RT larger than all go rt",1,1178.91754385439,1115.57872339787,1476.61,1326.040000004,1391.12307692308,1255.53333334167,1476.61,249.989446301952,222.861978096077,124.828063529178,247.786260374302,79.4877994185916,341.522426603892,0.212049983991781,0.199772524719076,0.0845369214140347,0.186861829487462,0.0571393004236583,0.272013826741591,1500
21,2,4,4,Conveyor_Belt,1,90,50,45.5555555555556,41,19,45,5,5,20,0.444444444444444,45,22,23,7,16,0.111111111111111,0.422222222222222,0.511111111111111,0.488888888888889,0.575,-0.167565325867321,0.0559276359482017,261.111111111111,118.651939842056,980.688888888889,1005.48888888889,1005.48888888889,1241.8,1266.6,1266.6,,,"",0,1246.54545454091,1314.54210526316,1194.867999992,1229.19999999778,1118.5,1335.08695651739,1194.867999992,191.453140132552,122.951450742828,218.843238658106,205.12211219292,165.555914881773,184.420924933143,0.153586970643652,0.093531770683157,0.183152648375863,0.166874481120478,0.148016016881335,0.138134017438242,1500
21,2,4,4,HR_Driving,2,18,27.7777777777778,77.7777777777778,14,11,13,0,0,2,0.153846153846154,5,3,2,0,2,0,0.846153846153846,0.4,0.6,0.4,1.273423335922,-0.383364564825201,240,41.8330013267038,400.5999999,400.5999999,400.5999999,640.5999999,640.5999999,640.5999999,,,"",0,741.123076915385,713.972727263636,890.45,711.96000002,807.400000033333,568.8,890.45,257.278445636767,246.220373203981,367.907658251361,152.950949656261,72.5835380231634,121.339523651612,0.347146720498275,0.34485963371128,0.41317048486873,0.214830818658301,0.0898978672531171,0.213325463522524,1500
21,2,5,5,HR_Driving,2,97,29.8969072164948,81.4432989690722,79,64,68,1,1,3,0.0441176470588235,29,15,14,0,14,0.0147058823529412,0.941176470588235,0.482758620689655,0.517241379310345,0.489963973237262,1.60795766251462,-0.760747640104491,377.586206896552,68.9023725702737,519.413793103448,530.613793003448,530.613793003448,897,908.1999999,908.1999999,,,"",0,917.882352936765,914.229687495313,800.633333333333,891.013793127586,1009.41333334667,764.157142892857,800.633333333333,239.588599472567,233.906472747908,84.2107673242165,211.988521790997,152.441529139749,195.602531507328,0.261023211423559,0.255850882931547,0.105180191503664,0.237918339116712,0.151019928213485,0.255971606529566,1500
21,2,5,5,Mining,2,101,29.7029702970297,52.4752475247525,53,37,71,31,31,3,0.0422535211267606,30,16,14,1,13,0.436619718309859,0.52112676056338,0.466666666666667,0.533333333333333,0.828333333333333,0.136633446010126,0.0153350109020663,631.666666666667,104.620276709874,807.533333333333,878.733333333333,882.133333333333,1439.2,1510.4,1513.8,,,"",0,1340.38591549296,1214.22702702703,1477.67647058824,1326.37333333333,1391.175,1252.31428571429,1477.67647058824,270.92449727886,256.603767880867,215.871592105295,339.305476172902,134.310751617285,474.272951039707,0.202124249551833,0.211330963789489,0.146088535888617,0.255814458603587,0.0965448283769367,0.378717193000154,1500
21,2,6,6,Chest_Picking,2,105,49.5238095238095,56.1904761904762,59,33,53,16,16,4,0.0754716981132075,52,26,26,12,14,0.30188679245283,0.622641509433962,0.5,0.5,0.716216216216216,0.312425752996715,-0.156212876498358,332.692307692308,67.7977206110967,984.207692307692,1101.40769230769,1177.00769230769,1316.9,1434.1,1509.7,,,"",0,1323.48490566038,1260.69090909091,1427.095,1261.09807692308,1150.42307692308,1371.77307692308,1427.095,164.982607936793,116.602573844974,182.8864429812,238.227709070079,185.400695376673,236.481996875352,0.12465771784112,0.0924910087033603,0.128152956167039,0.18890498164213,0.161158706823359,0.172391484315895,1500
21,2,6,6,HR_Driving,2,99,30.3030303030303,84.8484848484848,84,67,69,2,2,0,0,30,17,13,0,13,0.0289855072463768,0.971014492753623,0.433333333333333,0.566666666666667,0.446268656716418,2.06381105114379,-0.864011520783791,378.333333333333,89.7153864992658,485.266666666667,494.666666666667,494.666666666667,863.6,873,873,,,"",0,919.624637681159,902.029850746268,NaN,891.293333333333,939.229411764706,828.607692307692,NaN,178.820524882778,148.669288278548,NaN,140.156333731507,106.088051664089,157.968411723876,0.194449471616675,0.164816372934389,NaN,0.157250512810792,0.112952224808166,0.190643187590898,1500
21,2,7,7,AB_Driving,2,80,30,72.5,58,46,56,10,10,0,0,24,12,12,2,10,0.178571428571429,0.821428571428571,0.5,0.5,NaN,0.920822976368379,-0.460411488184189,758.333333333333,77.5531608229038,NaN,NaN,NaN,NaN,NaN,NaN,stop RT larger than all go rt,stop RT larger than all go rt,"stop RT larger than all go rt",1,1208.92857142857,1137.86956521739,1535.8,1210.45833333333,1421.58333333333,999.333333333333,1535.8,243.414637428166,208.578320882178,6.19677335393187,312.168708451427,106.984670383049,308.318115922598,0.201347410575736,0.183306002074438,0.00403488302769362,0.257892981406294,0.075257403399765,0.308523798454901,1500
21,2,7,7,Treasure_Collect,2,117,28.2051282051282,59.8290598290598,70,54,84,27,27,3,0.0357142857142857,33,16,17,5,12,0.321428571428571,0.642857142857143,0.515151515151515,0.484848484848485,0.759170653907496,0.328118005570287,-0.202047354015426,478.787878787879,102.340045185083,832.212121212121,1038.21212121212,1046.21212121212,1311,1517,1525,,,"",0,1272.64285714286,1157.35185185185,1480.16666666667,1139.0303030303,1073.875,1200.35294117647,1480.16666666667,252.13080573658,221.138150059189,152.535147636103,211.458105314103,103.407204778004,266.765098255111,0.19811591627727,0.191072533132729,0.103052683911341,0.185647479923524,0.0962935209200361,0.222238884168229,1500
21,2,8,8,AB_Driving,2,80,30,65,52,39,56,13,13,4,0.0714285714285714,24,13,11,4,7,0.232142857142857,0.696428571428571,0.458333333333333,0.541666666666667,NaN,0.618789556358609,-0.204761322565229,700,78.0189497605494,NaN,NaN,NaN,NaN,NaN,NaN,stop RT larger than all go rt,stop RT larger than all go rt,"stop RT larger than all go rt",1,1247.01964285714,1164.88974358974,1435.43529411765,1269.125,1286.06923076923,1249.1,1435.43529411765,221.201617961897,191.843900078426,163.177085329009,199.972122513636,83.2902893961374,287.811202005759,0.177384229052788,0.164688461834367,0.113677771473017,0.157566924072598,0.0647634570545781,0.230414860304026,1500
21,2,8,8,Conveyor_Belt,2,92,48.9130434782609,45.6521739130435,42,36,47,6,6,5,0.106382978723404,45,6,39,6,33,0.127659574468085,0.765957446808511,0.866666666666667,0.133333333333333,NaN,-0.385173386442224,-0.918184923415674,108.888888888889,88.0914355093673,NaN,NaN,NaN,NaN,NaN,NaN,stop RT larger than all go rt,stop RT larger than all go rt,"stop RT larger than all go rt",1,1098.92978723404,1093.60555555556,1116.35454545455,1104.43111111133,793.05,1152.33589743615,1116.35454545455,327.811663794196,264.622018244292,498.793906064692,307.662551877571,228.635550604013,291.649333858417,0.298300826497099,0.241972086644954,0.446805997338057,0.278571065938178,0.288299036131407,0.253094027971628,1500
21,2,9,9,HR_Driving,2,94,30.8510638297872,86.1702127659574,81,65,65,0,0,0,0,29,16,13,0,13,0,1,0.448275862068966,0.551724137931034,NaN,5.86074745257416,-2.80035514298,548.275862068965,74.9794717390434,NaN,NaN,NaN,NaN,NaN,NaN,stop RT larger than all go rt,stop RT larger than all go rt,"stop RT larger than all go rt",1,971.939999998461,971.939999998461,NaN,1002.93103448965,1101.18750000625,882.000000007692,NaN,142.617156661163,142.617156661163,NaN,175.344385839336,86.8082167678853,183.316184053159,0.146734527503127,0.146734527503127,NaN,0.174831947371696,0.0788314585548715,0.207841478516508,1500
21,2,9,9,Mining,2,100,30,48,48,30,70,39,39,1,0.0142857142857143,30,18,12,1,11,0.557142857142857,0.428571428571429,0.4,0.6,NaN,0.0733347333430948,0.216679736464252,821.666666666667,77.3297165226361,NaN,NaN,NaN,NaN,NaN,NaN,stop RT larger than all go rt,stop RT larger than all go rt,"stop RT larger than all go rt",1,1391.87571428714,1228.90666667,1514.1025,1523.97,1538.10555555556,1502.76666666667,1514.1025,229.570107651717,277.975571896427,5.73569513816317,246.668399706556,201.108853966679,311.588444567315,0.164935780756325,0.226197464327917,0.00378818153867599,0.161859091521851,0.130751009409129,0.207343196704289,1500
21,2,10,10,Chest_Picking,2,106,49.0566037735849,51.8867924528302,55,32,54,17,17,5,0.0925925925925926,52,23,29,16,13,0.314814814814815,0.592592592592593,0.557692307692308,0.442307692307692,0.813929313929314,0.0890982527038454,-0.189670067562697,142.307692307692,74.3498720179123,1166.69230769231,1397.69230769231,1399.69230769231,1309,1540,1542,,,"",0,1222.2962962963,1090.03125,1414.68181818182,1200.40384615385,1009.65217391304,1351.68965517241,1414.68181818182,316.737176305448,272.473198963175,279.584791868506,349.683344689942,215.630915454173,364.13577760503,0.259132893771501,0.249968245372025,0.197630865312056,0.291304751988545,0.213569505445094,0.269393034275004,1500
21,2,10,10,HR_Driving,2,78,30.7692307692308,80.7692307692308,63,53,54,1,1,0,0,24,10,14,0,14,0.0185185185185185,0.981481481481482,0.583333333333333,0.416666666666667,0.594339622641509,1.87492717178391,-1.14789198013988,458.333333333333,131.601066028016,459.666666666667,466.666666666667,466.666666666667,918,925,925,,,"",0,881.074074074074,868.735849056604,NaN,874.458333333333,944.2,824.642857142857,NaN,189.140942940169,167.581799881935,NaN,117.331925736781,119.129994357238,90.0970477983492,0.214670875588909,0.192903055703203,NaN,0.134176691174667,0.126170296925692,0.109255839686175,1500
21,2,11,11,HR_Driving,2,89,29.2134831460674,82.0224719101124,73,58,63,1,1,4,0.0634920634920635,26,15,11,2,9,0.0158730158730159,0.920634920634921,0.423076923076923,0.576923076923077,NaN,1.60338336054243,-0.607663537847291,575,86.3133825081603,NaN,NaN,NaN,NaN,NaN,NaN,stop RT larger than all go rt,stop RT larger than all go rt,"stop RT larger than all go rt",1,941.631746031746,928.624137931034,990.675,1034.82692307692,1099.23333333333,947,990.675,197.535027376034,187.890836457456,159.03713140857,247.549575734142,130.096083539747,338.821177024105,0.209779489921079,0.202332492536835,0.160534112002998,0.239218337109056,0.118351654370999,0.357783713858612,1500
21,2,11,11,Treasure_Collect,2,113,30.0884955752212,72.5663716814159,82,62,79,13,13,3,0.0379746835443038,34,20,14,3,11,0.164556962025316,0.784810126582278,0.411764705882353,0.588235294117647,0.492869875222816,1.05562035894472,-0.304802348531991,798.529411764706,106.233942899084,519.770588235294,547.070588235294,561.470588235294,1318.3,1345.6,1360,,,"",0,1323.51923076923,1296.89516129032,1426.6875,1201.05294117647,1185.865,1222.75,1426.6875,197.148885697759,180.4007091944,229.978987083603,182.880663582292,166.681193568662,208.40459817015,0.148958081691927,0.139101998819175,0.161197870650442,0.152266946204015,0.140556634666393,0.170439254279411,1500
21,2,14,12,Conveyor_Belt,3,98,51.0204081632653,34.6938775510204,34,26,48,7,7,13,0.270833333333333,50,8,41,2,39,0.145833333333333,0.541666666666667,0.84,0.16,0.983414634146341,-0.784029488961829,-0.602443138728839,64,35.0509832753866,1471,1479,1485,1535,1543,1549,,,"",0,907.413043478261,669.807692307692,1216.3,882.081632653061,592.75,938.536585365854,1216.3,458.605886287123,244.484440278848,491.71922882881,385.151584700464,250.960298510684,383.378409509519,0.505399266170137,0.365006916293428,0.404274627007161,0.436639388513321,0.423383042616084,0.408485311587586,1500
21,2,14,12,HR_Driving,3,89,30.3370786516854,80.8988764044944,72,61,62,0,0,1,0.0161290322580645,27,11,16,0,16,0,0.983870967741935,0.592592592592593,0.407407407407407,0.592592592592593,1.9069789270574,-1.18770865744332,466.666666666667,93.0260509419063,358.333333333333,358.333333333333,358.333333333333,825,825,825,,,"",0,804.467741935484,816.459016393443,73,802.777777777778,966.727272727273,690.0625,73,237.046769801881,219.235229359585,0,170.123107762796,46.7463173075503,124.281116157417,0.294662865202731,0.268519576558804,0,0.211918058112825,0.0483552276079607,0.180101246129759,1500
21,2,14,12,Mining,3,99,29.2929292929293,55.5555555555556,55,43,70,19,19,8,0.114285714285714,29,12,17,2,15,0.271428571428571,0.614285714285714,0.586206896551724,0.413793103448276,NaN,0.0727083911959951,-0.254152575525396,781.034482758621,61.8376230592328,NaN,NaN,NaN,NaN,NaN,NaN,stop RT larger than all go rt,stop RT larger than all go rt,"stop RT larger than all go rt",1,1273.57142857143,1182.18604651163,1419.11111111111,1324.10344827586,1277.91666666667,1356.70588235294,1419.11111111111,319.561319394263,288.69239320755,317.127047257979,356.784283048654,301.027168309782,397.161926156367,0.250917468957918,0.244202166029127,0.223468793088146,0.269453480778431,0.23556087510384,0.292739886605022,1500
22,2,1,1,AB_Driving,0,93,31.1827956989247,78.494623655914,73,58,64,2,2,4,0.0625,29,15,14,1,13,0.03125,0.90625,0.482758620689655,0.517241379310345,NaN,1.36124208845635,-0.63738985307536,224.137931034483,72.7283223166537,NaN,NaN,NaN,NaN,NaN,NaN,stop RT larger than all go rt,stop RT larger than all go rt,"stop RT larger than all go rt",1,708.267187498437,682.546551722413,956.9,723.382758624138,791.6,650.29285715,956.9,237.260965462281,195.032405059755,440.231575423663,280.331141009688,282.248985826344,268.972224656295,0.334987939085918,0.285742275845638,0.460060168694391,0.387528093070497,0.356555060417312,0.413617067601056,1500
22,2,1,1,HR_Driving,1,23,30.4347826086957,65.2173913043478,15,15,16,0,0,0,0,7,0,7,0,7,0,0.9375,1,0,1,0,-5.73072886926708,92.8571428571429,60.7492896293956,596.042857142857,596.042857142857,596.042857142857,688.9,688.9,688.9,,,"",0,418.98,418.98,NaN,341.442857142857,NaN,341.442857142857,NaN,120.990520289814,120.990520289814,NaN,101.665511316504,NaN,101.665511316504,0.288773975583117,0.288773975583117,NaN,0.297752637636721,NaN,0.297752637636721,1500
22,2,1,1,Mining,1,110,30,73.6363636363636,81,63,77,5,5,9,0.116883116883117,33,18,15,0,15,0.0649350649350649,0.818181818181818,0.454545454545455,0.545454545454545,0.486111111111111,1.02264316285881,-0.397136287107978,436.363636363636,82.2275114323889,441.536363636364,445.136363636364,445.136363636364,877.9,881.5,881.5,,,"",0,957.49090909091,941.769841269842,1028.23571428571,865.987878790909,877.477777783333,852.2,1028.23571428571,250.225393754163,200.58946731661,409.341904500651,104.384160550347,119.39956427128,84.9745508120772,0.261334485140689,0.212992026848242,0.398101231861032,0.12053766929866,0.136071325444736,0.0997119817086097,1500
22,2,2,2,AB_Driving,1,91,29.6703296703297,84.6153846153846,77,62,64,0,0,2,0.03125,27,15,12,1,11,0,0.96875,0.444444444444444,0.555555555555556,NaN,2.00244216630351,-0.861510784269895,344.444444444444,59.3771085995355,NaN,NaN,NaN,NaN,NaN,NaN,stop RT larger than all go rt,stop RT larger than all go rt,"stop RT larger than all go rt",1,780.15,783.812903225807,666.6,819.6,919,695.35,666.6,163.689545486532,165.010025014747,22.2031529292576,228.1712194485,125.569798461709,269.579428335728,0.209818042025933,0.210522210511773,0.0333080601999064,0.278393386345168,0.13663743031742,0.387688830568388,1500
22,2,2,2,Chest_Picking,1,126,50,49.2063492063492,62,34,63,3,3,26,0.412698412698413,63,28,35,0,35,0.0476190476190476,0.53968253968254,0.555555555555556,0.444444444444444,NaN,-0.0400763248452642,-0.11967213645923,135.714285714286,76.9523163145536,NaN,NaN,NaN,NaN,NaN,NaN,stop RT larger than all go rt,stop RT larger than all go rt,"stop RT larger than all go rt",1,686.247619047619,700.147058823529,669.951724137931,698.28253968254,737.332142857143,667.042857142857,669.951724137931,312.425982902554,302.312324185971,328.502526214128,261.599408440982,154.832475906181,321.704853120074,0.455267128410793,0.431784037904769,0.4903376084849,0.374632607253667,0.209990134576541,0.482285133069308,1500
22,2,2,2,HR_Driving,2,20,30,65,13,13,14,0,0,1,0.0714285714285714,6,0,6,3,3,0,0.928571428571429,1,0,NaN,-4.26549507658156,-3.5979813309763,50,0,NaN,NaN,NaN,NaN,NaN,NaN,stop RT larger than all go rt,stop RT larger than all go rt,"stop RT larger than all go rt",1,445.771428571429,426.984615384615,690,958.366666666666,NaN,958.366666666666,690,175.226418049384,167.062861652702,0,623.070521423271,NaN,623.070521423271,0.393085798726346,0.391262016553492,0,0.65013793060061,NaN,0.65013793060061,1500
22,2,3,3,AB_Driving,2,88,29.5454545454545,82.9545454545455,73,60,62,2,2,0,0,26,13,13,1,12,0.032258064516129,0.967741935483871,0.5,0.5,NaN,1.84859628850141,-0.924298144250705,467.307692307692,98.9366541705426,NaN,NaN,NaN,NaN,NaN,NaN,stop RT larger than all go rt,stop RT larger than all go rt,"stop RT larger than all go rt",1,884.045161290323,862.831666666667,1520.45,997.815384615385,1110.11538461538,885.515384615385,1520.45,277.2277442633,255.480121281591,14.4956890143242,263.279776196058,178.597246368068,291.868799994546,0.313590025037486,0.296094975591907,0.00953381499840457,0.26385620051102,0.16088169648234,0.329603307932721,1500
22,2,3,3,Conveyor_Belt,3,17,52.9411764705882,52.9411764705882,9,6,8,0,0,2,0.25,9,3,6,2,4,0,0.75,0.666666666666667,0.333333333333333,NaN,0.243762450900624,-0.55260852474577,194.444444444444,39.0867979985286,NaN,NaN,NaN,NaN,NaN,NaN,stop RT larger than all go rt,stop RT larger than all go rt,"stop RT larger than all go rt",1,835.1875,886.15,682.3,1110.96666666667,921.133333333333,1205.88333333333,682.3,224.915796545539,232.601958289263,145.805418280666,845.965715912885,206.304273667157,1046.70682698961,0.269299763880014,0.262485988026026,0.213696934311397,0.76146813517917,0.223967873272589,0.868000077666121,1500
22,2,3,3,Treasure_Collect,3,124,29.8387096774194,77.4193548387097,96,77,87,6,6,4,0.0459770114942529,37,19,18,1,17,0.0689655172413793,0.885057471264368,0.486486486486487,0.513513513513513,0.522522522522523,1.23453483335467,-0.583387581273846,337.837837837838,86.9270171253236,517.762162162162,543.462162162162,543.462162162162,855.6,881.3,881.3,,,"",0,925.857471264368,889.236363636364,1207.84,746.894594594595,814.126315789474,675.927777777778,1207.84,254.966332767081,195.444353979316,445.8675941976,284.985079478778,189.373868436972,351.612615723537,0.27538399881236,0.219788980716087,0.369144583883296,0.381559970498199,0.232609933820076,0.520192581638708,1500
22,2,4,4,AB_Driving,3,91,29.6703296703297,58.2417582417582,53,39,64,4,4,21,0.328125,27,14,13,1,12,0.0625,0.609375,0.481481481481482,0.518518518518518,0.51358024691358,0.324126164592104,-0.115627357525525,320.37037037037,68.3025780277887,337.82962962963,358.82962962963,358.82962962963,658.2,679.2,679.2,,,"",0,731.51875,748.282051282051,705.368,708.688888888889,897.1,505.784615384615,705.368,396.090178474709,227.735686905716,573.186907939577,417.232943914044,138.313045160384,520.038120151068,0.541462783386905,0.304344714022648,0.812606905813104,0.588739220348436,0.154177956928307,1.02818097730318,1500
22,2,4,4,Conveyor_Belt,3,101,49.5049504950495,47.5247524752475,48,23,51,6,6,22,0.431372549019608,50,25,25,1,24,0.117647058823529,0.450980392156863,0.5,0.5,NaN,-0.12318477148588,0.0615923857429398,243,129.760375700908,NaN,NaN,NaN,NaN,NaN,NaN,stop RT larger than all go rt,stop RT larger than all go rt,"stop RT larger than all go rt",1,731.468627450981,675.047826086956,777.814285714286,762.652,723.652,801.652,777.814285714286,409.204540781354,317.997652749435,471.968487424418,330.145284802844,246.567249312096,398.20742827493,0.559428696494268,0.471074256460863,0.606788144796027,0.432891128329624,0.340726273557036,0.496733530602967,1500
22,2,5,5,HR_Driving,3,33,30.3030303030303,54.5454545454545,18,16,23,4,4,2,0.0869565217391304,10,2,8,3,5,0.173913043478261,0.695652173913043,0.8,0.2,NaN,-0.20095434365381,-0.74114406174601,55,15.8113883008419,NaN,NaN,NaN,NaN,NaN,NaN,stop RT larger than all go rt,stop RT larger than all go rt,"stop RT larger than all go rt",1,831.336363636364,648.025,945.05,837.77,697.5,872.8375,945.05,414.965394478526,197.583074511288,798.111423925256,520.775193661654,134.915973850393,582.294687146097,0.499154629376993,0.304900388891306,0.844517669885462,0.621620723661213,0.193427919498772,0.667128402647798,1500
22,2,5,5,Mining,3,118,29.6610169491525,66.1016949152542,78,61,83,17,17,4,0.0481927710843374,35,17,18,7,11,0.204819277108434,0.734939759036145,0.514285714285714,0.485714285714286,0.646753246753247,0.629224639179269,-0.350428951249704,277.142857142857,91.8301318154542,725.857142857143,860.457142857143,890.157142857143,1003,1137.6,1167.3,,,"",0,7219.17926829268,919.172131147541,25519.2,1174.76571428571,898.970588235294,1435.23888888889,25519.2,46297.6238803127,269.982196407558,90598.8116066651,837.061941605299,217.532962343371,1099.50360571802,6.41314229217942,0.293723218164261,3.5502214648839,0.712535215682774,0.241980066078017,0.766077072067924,1500
22,2,6,6,Chest_Picking,4,119,49.5798319327731,70.5882352941177,84,45,60,0,0,15,0.25,59,39,20,0,20,0,0.75,0.338983050847458,0.661016949152542,0.338983050847458,1.08972991102215,-0.129624794685005,450,118.903032065977,461.3999999,461.3999999,461.3999999,911.3999999,911.3999999,911.3999999,,,"",0,900.70833332,981.7022222,657.72666668,818.737288138983,778.646153848718,896.915000005,657.72666668,204.293184367214,131.041266035589,193.841800244169,164.148303330349,163.209874350476,138.724878314085,0.226813916125536,0.133483721511728,0.294714826179425,0.200489590138814,0.209607243988501,0.154668924383372,1500
22,2,6,6,HR_Driving,4,114,29.8245614035088,73.6842105263158,84,76,80,1,1,2,0.025,34,8,26,0,26,0.0125,0.95,0.764705882352941,0.235294117647059,0.774385703648548,1.05894205770968,-1.25099331283718,64.7058823529412,26.1968415997792,515.894117647059,526.194117647059,526.194117647059,580.6,590.9,590.9,,,"",0,524.46075948481,515.956578938158,342.5,459.699999991765,516.3125,442.28076922,342.5,254.814299110382,230.10190052181,35.355338917906,256.199608502667,112.780664950552,285.901841932954,0.485859608182492,0.445971443944686,0.103227266913594,0.557319139672082,0.218434891563833,0.646426120758463,1500
22,2,7,7,AB_Driving,4,88,30.6818181818182,85.2272727272727,75,59,61,1,1,1,0.0163934426229508,27,16,11,0,11,0.0163934426229508,0.967213114754098,0.407407407407407,0.592592592592593,0.414197530864198,2.07554539405185,-0.803553503111308,564.814814814815,89.6733546897323,358.885185185185,363.085185185185,363.085185185185,923.7,927.9,927.9,,,"",0,964.113114752459,954.613559320339,1244.35,943.848148148148,1075.74375,752,1244.35,194.964282606406,184.837412673217,369.746135882446,213.367111174741,152.533021424871,123.070207605253,0.202221377993042,0.193625379472733,0.297139981421984,0.22606084632721,0.141793081693359,0.163657190964432,1500
22,2,7,7,Treasure_Collect,4,151,29.8013245033113,74.8344370860927,113,86,106,9,9,11,0.10377358490566,45,27,18,0,18,0.0849056603773585,0.811320754716981,0.4,0.6,0.437113402061856,1.13612091865312,-0.314713356190759,527.777777777778,109.001436372706,391.922222222222,409.122222222222,410.222222222222,919.7,936.9,938,,,"",0,1015.11226415094,984.897674418604,1145.035,929.382222222222,944.585185185185,906.577777777778,1145.035,227.123849454467,149.168818675742,404.512528301203,148.187297469497,177.653378377679,87.4598499854483,0.223742592297845,0.151456158898738,0.353275252111248,0.159447097142842,0.188075550161048,0.0964725279278648,1500
22,2,9,8,HR_Driving,4,96,29.1666666666667,82.2916666666667,79,64,68,0,0,4,0.0588235294117647,28,15,13,0,13,0,0.941176470588235,0.464285714285714,0.535714285714286,0.464285714285714,1.65436882243756,-0.737542060143018,164.285714285714,66.4679578292384,400.014285714286,400.014285714286,400.014285714286,564.3,564.3,564.3,,,"",0,549.783823529412,548.859375,564.575,521.153571428572,630.246666666667,395.276923076923,564.575,171.701033655295,167.102742578873,267.795959329735,164.118758902843,119.219694362171,109.45081204089,0.312306449020338,0.304454565577699,0.474331947623851,0.314914389731544,0.189163546064776,0.27689653923862,1500
22,2,9,8,Mining,4,48,31.25,62.5,30,19,33,11,11,3,0.0909090909090909,15,11,4,0,4,0.333333333333333,0.575757575757576,0.266666666666667,0.733333333333333,0.4,0.813977729356262,0.215936858531957,576.666666666667,143.759057685652,448.933333333333,509.633333333333,603.133333333333,1025.6,1086.3,1179.8,,,"",0,13291.3666666667,1078.98947368421,29865.3071428571,1131.95333333333,1168.16363636364,1032.375,29865.3071428571,48285.2301330119,178.717772214358,72285.1284998349,281.569067565178,317.70278649306,124.497560217058,3.63282658164161,0.165634398270936,2.42037117361852,0.248746179964879,0.271967707779394,0.120593350494789,1500
22,2,10,9,Chest_Picking,4,114,50.8771929824561,79.8245614035088,91,49,56,1,1,6,0.107142857142857,58,42,16,0,16,0.0178571428571429,0.875,0.275862068965517,0.724137931034483,0.280877742946708,1.74552791370929,-0.277585423521365,687.068965517241,111.039879365196,278.931034482759,278.931034482759,278.931034482759,966,966,966,,,"",0,1046.10714285714,1052.28571428571,1002.85714285714,978.775862068965,931.190476190476,1103.6875,1002.85714285714,199.02130343453,187.229026417736,283.11683605385,218.724054549831,221.528860432779,157.070140913754,0.190249445091217,0.177926036508845,0.282310235381332,0.223466947874548,0.23789854610526,0.142313961980864,1500
22,2,10,9,HR_Driving,4,117,29.9145299145299,78.6324786324786,92,77,82,2,2,3,0.0365853658536585,35,15,20,0,20,0.024390243902439,0.939024390243902,0.571428571428571,0.428571428571429,0.585714285714286,1.36662290160652,-0.863323820595967,107.142857142857,43.9633154942129,378.857142857143,387.857142857143,394.857142857143,486,495,502,,,"",0,523.682926829268,495.506493506493,573.666666666667,422,479.466666666667,378.9,573.666666666667,277.804704385981,229.348598344404,269.689327436837,122.404824972182,63.4438634504852,138.863772699798,0.530482645420577,0.462856897639018,0.470115039111278,0.290058826948299,0.132321739677041,0.36649187833148,1500
22,2,11,10,HR_Driving,4,22,31.8181818181818,72.7272727272727,16,13,15,0,0,2,0.133333333333333,7,3,4,0,4,0,0.866666666666667,0.571428571428571,0.428571428571429,0.571428571428571,0.930759246844081,-0.645391993214745,107.142857142857,34.5032779671177,426.157142857143,426.157142857143,426.157142857143,533.3,533.3,533.3,,,"",0,491.946666653333,489.276923053846,509.30000005,448.485714271429,455.966666666667,442.874999975,509.30000005,135.39700284248,145.154355500329,55.8614356430266,41.7626399761512,39.3703357025735,48.5484208947281,0.275226995161027,0.296671166492669,0.109682771721073,0.0931192201829554,0.086344767240091,0.10962104633919,1500
22,2,11,10,Treasure_Collect,4,90,30,73.3333333333333,66,47,63,9,9,7,0.111111111111111,27,19,8,3,5,0.142857142857143,0.746031746031746,0.296296296296296,0.703703703703704,NaN,1.19713698183632,-0.0634856758318365,901.851851851852,106.952075429822,NaN,NaN,NaN,NaN,NaN,NaN,stop RT larger than all go rt,stop RT larger than all go rt,"stop RT larger than all go rt",1,1667.30952381429,1241.37659575319,2918.48749999375,1672.71481481111,1159.36842105263,2891.9124999875,2918.48749999375,3355.58606432031,187.735290281486,6647.91851804176,2693.52404448888,190.567876658253,4943.67801640428,2.01257535951919,0.151231536766311,2.27786431089939,1.61027093240221,0.164372147108535,1.70948395445078,1500
22,2,12,11,Conveyor_Belt,4,19,47.3684210526316,42.1052631578947,8,4,10,4,4,1,0.1,9,4,5,1,4,0.4,0.4,0.555555555555556,0.444444444444444,0.925925925925926,-0.139710298881862,-0.0698551494409311,111.111111111111,48.5912657903775,1319.98888888889,21186.3888888889,93235.7888888889,1431.1,21297.5,93346.9,,,"",0,13749.4888888889,1255.65,23744.56,1248.33333334444,1211.175,1278.06000002,23744.56,30573.4307169413,184.061774050634,39855.628262869,228.763704490494,160.644107164461,287.794080868495,2.22360488917141,0.146586846693453,1.67851618488062,0.183255303996095,0.132634926550218,0.225180414741085,1500
22,2,12,11,HR_Driving,4,12,33.3333333333333,83.3333333333333,10,8,8,0,0,0,0,4,2,2,0,2,0,1,0.5,0.5,0.5,5.73072886926708,-2.86536443463354,100,40.8248290463863,341.0999999,341.0999999,341.0999999,441.0999999,441.0999999,441.0999999,,,"",0,456.999999975,456.999999975,NaN,339.824999975,401.19999995,278.45,NaN,109.890282954682,109.890282954682,NaN,107.020383565134,53.4572727284137,128.198459429121,0.240460137769569,0.240460137769569,NaN,0.314927929295981,0.13324345148324,0.46040028525452,1500
22,2,14,12,AB_Driving,4,139,45.3237410071942,61.1510791366906,85,57,76,19,19,0,0,63,28,35,15,20,0.25,0.75,0.555555555555556,0.444444444444444,0.740740740740741,0.53477945131422,-0.407100024538972,635.714285714286,204.274596068817,659.685714285714,777.985714285714,868.385714285714,1295.4,1413.7,1504.1,,,"",0,1269.88157894737,1182.64035087719,1531.6052631579,1259.43968253968,1316.21785714286,1214.01714285714,1531.6052631579,220.855066629997,185.11285926202,14.9398971320351,293.775263863318,179.095333714201,356.549470609054,0.173917844223765,0.156525066242427,0.00975440440915677,0.233258700623848,0.136068153719603,0.293693933983443,1500
22,2,14,12,Chest_Picking,4,104,49.0384615384615,70.1923076923077,73,42,53,10,10,1,0.0188679245283019,51,31,20,7,13,0.188679245283019,0.792452830188679,0.392156862745098,0.607843137254902,0.483356133150935,1.08866340446331,-0.270629812618673,824.509803921569,71.6746461586019,388.890196078431,395.690196078431,398.390196078431,1213.4,1220.2,1222.9,,,"",0,1264.38301886792,1211.11666666667,1467.76363636364,1252.06274509804,1223.90967741935,1295.7,1467.76363636364,204.405580738064,170.885999535943,200.298558520661,205.877991986307,187.330443076468,229.857150146965,0.161664288184667,0.141097884488923,0.136465132095041,0.164431050114973,0.153059042290979,0.177399976959917,1500
22,2,14,12,Mining,4,99,30.3030303030303,73.7373737373737,73,56,69,9,9,4,0.0579710144927536,30,17,13,1,12,0.130434782608696,0.811594202898551,0.433333333333333,0.566666666666667,NaN,1.05168028456958,-0.357946137496684,755,80.2474620932886,NaN,NaN,NaN,NaN,NaN,NaN,stop RT larger than all go rt,stop RT larger than all go rt,"stop RT larger than all go rt",1,1287.90434782609,1261.49821428571,1401.65384615385,1292.43666666667,1291.88823529412,1293.15384615385,1401.65384615385,187.150733866316,171.361853706839,215.909725021765,230.883228409773,127.078729939125,327.555215740758,0.145314156429565,0.135839949487259,0.15403926269972,0.178641812294947,0.0983666593342682,0.253299494654087,1500
22,2,15,13,HR_Driving,5,5,40,60,3,3,3,0,0,0,0,2,0,2,0,2,0,1,1,0,NaN,0,-5.73072886926708,825,35.3553390593274,NaN,NaN,NaN,NaN,NaN,NaN,stop RT larger than all go rt,stop RT larger than all go rt,"stop RT larger than all go rt",1,1075.79999996667,1075.79999996667,NaN,179791.3,NaN,179791.3,NaN,250.343683820583,250.343683820583,NaN,252466.395104339,NaN,252466.395104339,0.232704669853448,0.232704669853448,NaN,1.40421919806097,NaN,1.40421919806097,1500
22,2,15,13,Treasure_Collect,5,112,30.3571428571429,80.3571428571429,90,66,78,6,6,6,0.0769230769230769,34,24,10,3,7,0.0769230769230769,0.846153846153846,0.294117647058823,0.705882352941177,0.318627450980392,1.56147131791529,-0.239340573828557,973.529411764706,39.3802252283736,187.470588235294,190.070588235294,190.070588235294,1161,1163.6,1163.6,,,"",0,1215.25256410256,1207.63484848485,1257.15,1075.18823528824,1043.520833325,1151.19,1257.15,176.885799777124,125.397573884547,351.907863722602,199.446511047706,130.423730778957,305.438764366571,0.145554763678075,0.103837326358938,0.27992511929571,0.185499156800427,0.124984309477928,0.265324372489833,1500
22,2,16,14,Conveyor_Belt,5,98,30.6122448979592,75.5102040816327,74,57,68,5,5,6,0.0882352941176471,30,17,13,0,13,0.0735294117647059,0.838235294117647,0.433333333333333,0.566666666666667,0.467724867724868,1.15512499677828,-0.409668493601035,881.666666666667,88.5548080173431,442.333333333333,456.333333333333,456.333333333333,1324,1338,1338,,,"",0,1312.29411764706,1330.9298245614,1215.72727272727,1262.66666666667,1260.29411764706,1265.76923076923,1215.72727272727,196.006705552636,150.162633221584,344.810409039255,165.96516737439,74.2308600801263,243.311238898574,0.149361871639016,0.112825357468467,0.283624803666477,0.131440206473909,0.0588996322689451,0.192224011284197,1500
22,2,16,14,HR_Driving,5,101,44.5544554455446,75.2475247524752,76,51,56,0,0,5,0.0892857142857143,45,25,20,0,20,0,0.910714285714286,0.444444444444444,0.555555555555556,0.444444444444444,1.4848769330585,-0.602728167647388,176.666666666667,66.2296280856509,290.333333333333,290.333333333333,290.333333333333,467,467,467,,,"",0,484.696428571429,483.666666666667,495.2,483.111111111111,549.36,400.3,495.2,122.078204389698,126.427634110058,70.474818197708,136.242968496163,94.2151261740916,137.040562569896,0.251865285555138,0.261394143576963,0.142315868735275,0.282011664320485,0.171499792802701,0.342344647938787,1500
22,2,22,15,Chest_Picking,9,110,50,80,88,49,55,4,4,2,0.0363636363636364,55,39,16,1,15,0.0727272727272727,0.890909090909091,0.290909090909091,0.709090909090909,0.313725490196078,1.78210807254564,-0.340323169490604,714.545454545455,119.672673662574,311.354545454546,314.954545454545,314.954545454545,1025.9,1029.5,1029.5,,,"",0,1126.89272727273,1102.82040816327,1323.48333333333,1078.29090909091,1055.13076923077,1134.74375,1323.48333333333,253.445090739991,221.389715753683,413.698757149048,213.814934925759,175.380133235219,286.122036827528,0.224906137564106,0.200748656911786,0.312583276819288,0.198290584779225,0.166216490267911,0.252146827711127,1500
22,2,22,15,HR_Driving,9,88,43.1818181818182,61.3636363636364,54,44,50,3,3,3,0.06,38,10,28,7,21,0.06,0.88,0.736842105263158,0.263157894736842,NaN,0.541346791286389,-0.904313396422896,128.947368421053,95.6002225962638,NaN,NaN,NaN,NaN,NaN,NaN,stop RT larger than all go rt,stop RT larger than all go rt,"stop RT larger than all go rt",1,610.254,538.722727272727,754.4,794.186842105263,601.23,863.1,754.4,275.33444835883,146.979408245519,143.599582172094,453.792045581455,234.338938055307,495.153490605953,0.451180079702599,0.272829418186233,0.190349393123136,0.571392047214638,0.389765876711586,0.57369191357427,1500
23,2,1,1,AB_Driving,0,86,31.3953488372093,79.0697674418605,68,51,59,5,5,3,0.0508474576271186,27,17,10,3,7,0.0847457627118644,0.864406779661017,0.37037037037037,0.62962962962963,NaN,1.4312069911855,-0.384730923866331,405.555555555556,125.830573921179,NaN,NaN,NaN,NaN,NaN,NaN,stop RT larger than all go rt,stop RT larger than all go rt,"stop RT larger than all go rt",1,961.408474576272,919.741176470588,1227.0375,1196.44814814815,1329.31764705882,970.57,1227.0375,277.43966618928,217.22078185705,455.468766178632,310.943176073119,128.452234484721,399.929849543086,0.288576264434904,0.236175988869622,0.371193843854513,0.259888551421467,0.0966302032993597,0.412056677563788,1500
23,2,1,1,Mining,0,120,30,70,84,63,84,12,12,9,0.107142857142857,36,21,15,0,15,0.142857142857143,0.75,0.416666666666667,0.583333333333333,0.486111111111111,0.884918144444007,-0.232030677974079,516.666666666667,132.557265253281,661.333333333333,680.733333333333,683.233333333333,1178,1197.4,1199.9,,,"",0,1219.99166666667,1194.53650793651,1296.35714285714,1186.26388888889,1207.96666666667,1155.88,1296.35714285714,212.270856303316,179.559266252918,280.858326512547,254.617745036165,308.753562462578,155.550332690097,0.173993693648166,0.150317102122811,0.216651968217294,0.21463836792221,0.255597750320852,0.134573080847577,1500
23,2,2,2,AB_Driving,0,84,29.7619047619048,72.6190476190476,61,48,59,6,6,5,0.0847457627118644,25,13,12,3,9,0.101694915254237,0.813559322033898,0.48,0.52,NaN,0.941242713498844,-0.420467773284688,622,45.8257569495584,NaN,NaN,NaN,NaN,NaN,NaN,stop RT larger than all go rt,stop RT larger than all go rt,"stop RT larger than all go rt",1,1084.39491525424,1054.51666666667,1214.77272727273,1192.428,1406.16923076923,960.875,1214.77272727273,285.978714196878,235.537020023219,436.598023566092,345.122589958988,100.692157793076,369.231750641542,0.26372192471027,0.223360168187529,0.35940716626582,0.289428451830206,0.0716074250451298,0.384266164320585,1500
23,2,2,2,Chest_Picking,0,106,48.1132075471698,39.622641509434,42,17,55,13,13,25,0.454545454545455,51,25,26,19,7,0.236363636363636,0.309090909090909,0.509803921568627,0.490196078431373,NaN,-0.523006094522745,0.236925786197345,210.78431372549,91.2763526277185,NaN,NaN,NaN,NaN,NaN,NaN,stop RT larger than all go rt,stop RT larger than all go rt,"stop RT larger than all go rt",1,1216.23090909091,1212.66470588235,1217.82631578947,1308.16862745098,1142.148,1467.80384615385,1217.82631578947,317.994181097896,251.229095998992,346.812757865815,340.697179612744,399.076654207351,158.719436694487,0.261458723603387,0.207171112328361,0.284780147521273,0.260438274136421,0.34940888064187,0.108133956121172,1500
23,2,2,2,HR_Driving,1,16,37.5,68.75,11,9,10,0,0,1,0.1,6,2,4,0,4,0,0.9,0.666666666666667,0.333333333333333,0.666666666666667,0.850824266249143,-0.856139432420029,141.666666666667,58.4522597225006,733.933333333333,733.933333333333,733.933333333333,875.6,875.6,875.6,,,"",0,861.08,859.466666666667,875.6,681.25,795.25,624.25,875.6,217.606279525405,230.742870962463,0,135.718248588758,79.1252488147747,124.964541637485,0.252713196828872,0.26847215827156,0,0.199219447469737,0.0994973263939324,0.200183486804141,1500
23,2,3,3,AB_Driving,1,85,29.4117647058824,69.4117647058823,59,48,60,8,8,4,0.0666666666666667,25,11,14,4,10,0.133333333333333,0.8,0.56,0.44,NaN,0.690652018076137,-0.496295224534846,488,66.5832811847939,NaN,NaN,NaN,NaN,NaN,NaN,stop RT larger than all go rt,stop RT larger than all go rt,"stop RT larger than all go rt",1,972.546666666667,874.808333333333,1363.5,1105.308,1296.43636363636,955.135714285714,1363.5,336.011336303247,277.290755946413,261.952139972865,345.320383750125,100.508848095352,396.458665237321,0.345496363125588,0.316973153296147,0.192117447724874,0.312420052827017,0.0775270201565741,0.415080976773869,1500
23,2,3,3,Treasure_Collect,1,123,30.0813008130081,65.0406504065041,80,59,86,7,7,20,0.232558139534884,37,21,16,0,16,0.0813953488372093,0.686046511627907,0.432432432432432,0.567567567567568,0.470749230242901,0.65485962013515,-0.157245085955206,448.648648648649,84.562999597347,596.251351351351,627.351351351351,627.351351351351,1044.9,1076,1076,,,"",0,1056.06162790686,1097.93728813559,964.555555555185,1042.54594594595,1035.55238095238,1051.725,964.555555555185,355.995583967855,252.402901711765,509.439068096731,268.352450245107,331.201839697559,162.521996459966,0.337097357351622,0.229888268154523,0.52815938404243,0.257401077898413,0.319831083187659,0.154528984725063,1500
23,2,4,4,AB_Driving,1,87,31.0344827586207,73.5632183908046,64,51,60,3,3,6,0.1,27,13,14,5,9,0.05,0.85,0.518518518518519,0.481481481481481,NaN,0.989997664723262,-0.541434557132158,455.555555555556,52.5015262293417,NaN,NaN,NaN,NaN,NaN,NaN,stop RT larger than all go rt,stop RT larger than all go rt,"stop RT larger than all go rt",1,903.6916666665,893.354901960784,962.266666665556,1060.57037037037,1129.03076923077,997,962.266666665556,302.727509230545,227.897202539852,588.834382489963,317.296396031334,99.0932757945377,428.078256684632,0.334989820529422,0.255102649618478,0.611924327099878,0.299175240885268,0.0877684457280574,0.429366355751888,1500
23,2,4,4,Conveyor_Belt,1,140,51.4285714285714,44.2857142857143,62,34,68,6,6,27,0.397058823529412,72,28,44,5,39,0.0882352941176471,0.5,0.611111111111111,0.388888888888889,NaN,-0.245345614400428,-0.159543339862294,213.194444444444,126.989257490533,NaN,NaN,NaN,NaN,NaN,NaN,stop RT larger than all go rt,stop RT larger than all go rt,"stop RT larger than all go rt",1,853.737313434328,947,757.648484851515,885.199999998611,708.082142853572,997.911363636364,757.648484851515,435.519974085166,354.793612220862,492.579732198204,417.789855190614,356.00492824043,418.569462555672,0.510133465214494,0.374650065703127,0.650142832787081,0.471972272019057,0.502773487276108,0.419445531745841,1500
23,2,5,5,HR_Driving,1,109,30.2752293577982,72.4770642201835,79,64,76,2,2,9,0.118421052631579,33,15,18,0,18,0.0263157894736842,0.842105263157895,0.545454545454545,0.454545454545455,0.56019656019656,0.945091622761003,-0.58673110570193,187.878787878788,117.280581719588,498.521212021212,499.021212121212,503.821212121212,686.3999999,686.9,691.7,,,"",0,660.245333330667,638.571874996875,625.488888888889,602.051515154546,738.91333332,488.000000016667,625.488888888889,264.877468509503,228.758928682572,226.162665157428,219.250791214304,202.83853841621,162.182478932525,0.401180372110023,0.358235208344701,0.361577430350811,0.364172808630875,0.274509241164778,0.332341145342184,1500
23,2,5,5,Mining,1,108,30.5555555555556,70.3703703703704,76,58,75,6,6,11,0.146666666666667,33,18,15,0,15,0.08,0.773333333333333,0.454545454545455,0.545454545454545,0.494071146245059,0.864054748062083,-0.317842079709613,518.181818181818,63.5144936931005,542.018181818182,560.818181818182,563.818181818182,1060.2,1079,1082,,,"",0,1056.05200000128,1106.87586207069,882.652941176235,1026.08484848879,1141.48333333889,887.606666668667,882.652941176235,327.472836653243,164.141921164933,598.903096416687,330.569260063153,265.725281066884,355.479427703477,0.310091583229658,0.14829298098331,0.678526143716896,0.322165618710786,0.232789453254324,0.400492065970673,1500
23,2,6,6,Chest_Picking,1,117,49.5726495726496,52.1367521367521,61,32,59,2,2,25,0.423728813559322,58,29,28,9,19,0.0338983050847458,0.542372881355932,0.5,0.5,NaN,0.10641355691565,-0.0532067784578252,256.034482758621,134.776483647796,NaN,NaN,NaN,NaN,NaN,NaN,stop RT larger than all go rt,stop RT larger than all go rt,"stop RT larger than all go rt",1,889.732203386441,947.9125,820.77777777037,997.954385968421,923.865517237931,1074.689285725,820.77777777037,374.212320540033,373.936098343293,369.54504288822,345.285543352556,183.820971276355,447.472625542787,0.420589834914068,0.394483771807306,0.450237631788817,0.345993312126675,0.198969403930047,0.41637395244051,1500
23,2,6,6,HR_Driving,1,112,29.4642857142857,75,84,70,79,1,1,5,0.0632911392405063,33,14,19,0,19,0.0126582278481013,0.886075949367089,0.575757575757576,0.424242424242424,0.583139083139083,1.24180490204039,-0.811954457166369,110.606060606061,51.1700225925415,397.193939393939,420.693939393939,420.693939393939,507.8,531.3,531.3,,,"",0,488.63947368421,473.13,502.7,478.493939390303,695,318.963157888421,502.7,238.979680635965,214.959897412172,107.503209254422,227.831004994198,127.78377771095,131.011098800111,0.489071582437093,0.454335800757026,0.213851619762128,0.47614188234965,0.183861550663238,0.410740537143606,1500
23,2,8,7,AB_Driving,1,86,27.906976744186,77.9069767441861,67,52,62,8,8,1,0.0161290322580645,24,15,9,3,6,0.129032258064516,0.838709677419355,0.375,0.625,NaN,1.37605359245076,-0.369387432261003,289.583333333333,114.188218636435,NaN,NaN,NaN,NaN,NaN,NaN,stop RT larger than all go rt,stop RT larger than all go rt,"stop RT larger than all go rt",1,1017.96885245902,939.871153846154,1469.2,1087.8375,1141.80666666667,997.888888888889,1469.2,295.610236934258,240.316132753063,136.076145962472,290.413041407519,139.798663730926,440.127215826414,0.290392221942919,0.255690507969776,0.0926192117904111,0.266963624077602,0.122436370194831,0.441058338986497,1500
23,2,8,7,Conveyor_Belt,1,99,50.5050505050505,48.4848484848485,48,17,49,4,4,27,0.551020408163265,50,31,19,1,18,0.0816326530612245,0.346938775510204,0.38,0.62,0.413777777777778,-0.0334075134539171,0.322184544826356,255,91.6125381312904,522.3,534.4,534.4,777.3,789.4,789.4,,,"",0,904.654166666667,886.070588235294,914.845161290322,796.13,789.932258064516,806.242105263158,914.845161290322,384.484058247022,277.863392165795,436.023548934924,366.124549595253,396.55924096079,320.364509956653,0.425006673725619,0.313590582799041,0.476609121832098,0.459880358226989,0.502016770314502,0.397355221049991,1500
23,2,9,8,HR_Driving,1,109,29.3577981651376,54.1284403669725,59,55,77,1,1,9,0.116883116883117,32,4,28,0,28,0.012987012987013,0.714285714285714,0.875,0.125,0.886513157894737,-0.0233441267082599,-1.13867731702188,67.1875,37.2640426009812,495.8125,496.3125,496.3125,563,563.5,563.5,,,"",0,355.412307692477,341.116363636364,315.377777779,313.065625,597.325,272.457142857143,315.377777779,224.063950488612,173.152309065401,178.099717697214,233.986908386623,227.895566360267,208.348885514635,0.63043385284925,0.507604816196928,0.564718665187682,0.747405303238331,0.381526918110353,0.764703333998767,1500
23,2,9,8,Mining,1,106,30.188679245283,61.3207547169811,65,52,74,11,11,11,0.148648648648649,32,13,19,0,19,0.148648648648649,0.702702702702703,0.59375,0.40625,NaN,0.294987621590516,-0.384695920124046,556.25,71.5609372628355,NaN,NaN,NaN,NaN,NaN,NaN,stop RT larger than all go rt,stop RT larger than all go rt,"stop RT larger than all go rt",1,1061.41891891892,1034.74038461538,1124.47727272727,1113.00625,1200.9,1052.86842105263,1124.47727272727,338.121571990594,254.103532442682,484.439932815714,327.753903485527,156.232273661153,399.169646547863,0.318556194885785,0.245572257757324,0.430813449560228,0.294476247088035,0.13009598939225,0.379125860901767,1500
23,2,10,9,Chest_Picking,1,112,50,54.4642857142857,61,32,56,5,5,19,0.339285714285714,56,29,27,4,23,0.0892857142857143,0.571428571428571,0.482142857142857,0.517857142857143,0.529411764705882,0.224788546488221,-0.0676180965485943,500.892857142857,88.6725700277412,592.107142857143,632.107142857143,632.107142857143,1093,1133,1133,,,"",0,1083.83928571429,1093.71875,1070.66666666667,977.482142857143,978.51724137931,976.37037037037,1070.66666666667,308.389292160867,256.462313696914,372.095671038776,329.450395828702,257.43398886062,397.776430069817,0.284534152088451,0.234486529280872,0.347536429986404,0.337039810124542,0.263085797545828,0.407403217202226,1500
23,2,10,9,HR_Driving,1,105,29.5238095238095,51.4285714285714,54,51,74,0,0,10,0.135135135135135,31,3,28,0,28,0,0.689189189189189,0.903225806451613,0.0967741935483871,0.903225806451613,-0.197713066348259,-1.20129690018929,54.8387096774194,15.0268576759382,541.161290322581,541.161290322581,541.161290322581,596,596,596,,,"",0,331.459016393443,362.411764705882,173.6,260.741935483871,434.666666666667,242.107142857143,173.6,181.777939051148,179.146886824258,94.1962490406775,131.457462763165,244.757703317655,105.083155532747,0.548417542020874,0.494318629445283,0.542605121202059,0.504166936243737,0.563092875730802,0.434035750835953,1500
23,2,11,10,HR_Driving,2,156,29.4871794871795,77.5641025641026,121,103,110,1,1,5,0.0454545454545455,46,18,28,0,28,0.00909090909090909,0.936363636363636,0.608695652173913,0.391304347826087,NaN,1.32637159210792,-0.939106859161918,104.347826086957,55.6038437485533,NaN,NaN,NaN,NaN,NaN,NaN,stop RT larger than all go rt,stop RT larger than all go rt,"stop RT larger than all go rt",1,472.571559633028,468.664077669903,347.36,475.145652173913,583.605555555555,405.421428571429,347.36,180.38034614738,145.138274066133,238.499639412725,190.089670894229,199.801111320651,149.011621115647,0.381699538346009,0.309685083584236,0.686606516043083,0.400066106097194,0.342356424503967,0.367547471875661,1500
23,2,11,10,Treasure_Collect,2,125,30.4,60,75,55,87,14,14,18,0.206896551724138,38,20,18,0,18,0.160919540229885,0.632183908045977,0.473684210526316,0.526315789473684,0.564527757750541,0.403654878676952,-0.135815626962636,467.105263157895,58.4441472683867,658.794736842105,684.794736842105,710.794736842105,1125.9,1151.9,1177.9,,,"",0,1093.11494252874,1130.98909090909,1028.01875,997.747368421053,1109.54,873.533333333333,1028.01875,376.99554081896,198.463921222312,564.582673986839,252.112273077157,137.366457255574,293.612858349622,0.344881884010153,0.175478192334098,0.549194918854193,0.25268147133891,0.123804871618485,0.336120955143428,1500
23,2,16,11,AB_Driving,3,81,44.4444444444444,77.7777777777778,63,43,45,0,0,2,0.0444444444444444,36,20,16,3,13,0,0.955555555555556,0.444444444444444,0.555555555555556,NaN,1.84099846573412,-0.780788933985199,413.888888888889,52.9300226864424,NaN,NaN,NaN,NaN,NaN,NaN,stop RT larger than all go rt,stop RT larger than all go rt,"stop RT larger than all go rt",1,839.311111111111,826.46511627907,1115.5,1037.77777777778,1167.6,875.5,1115.5,230.938581191685,228.035852322895,54.4472221513642,321.015808343373,142.958735304982,404.97423786376,0.275152536567709,0.275917092967654,0.0488097016148491,0.309330008039653,0.122438108346165,0.462563378485163,1500
23,2,16,11,Chest_Picking,3,106,50,45.2830188679245,48,26,53,8,8,19,0.358490566037736,53,22,31,18,13,0.150943396226415,0.490566037735849,0.584905660377358,0.415094339622642,NaN,-0.238109227202848,-0.0954049726708046,557.547169811321,156.400689310616,NaN,NaN,NaN,NaN,NaN,NaN,stop RT larger than all go rt,stop RT larger than all go rt,"stop RT larger than all go rt",1,1174.33962264151,1134.96153846154,1212.25925925926,1258.05660377358,1105.27272727273,1366.48387096774,1212.25925925926,259.491732741899,192.735773694295,309.692973591165,319.533398705431,279.56602113483,304.958343709185,0.220968217148468,0.169817008914286,0.255467608290656,0.253989683569864,0.252938495844969,0.223170101154003,1500
23,2,17,12,HR_Driving,3,68,44.1176470588235,79.4117647058823,54,37,38,0,0,1,0.0263157894736842,30,17,13,0,13,0,0.973684210526316,0.433333333333333,0.566666666666667,NaN,2.10582551564093,-0.885018753032362,421.666666666667,81.6672531060342,NaN,NaN,NaN,NaN,NaN,NaN,stop RT larger than all go rt,stop RT larger than all go rt,"stop RT larger than all go rt",1,783.797368421053,784.143243243243,771,855.663333333334,1001.3,665.215384615385,771,173.479437969729,175.859087435462,0,214.314545636232,141.828157465293,121.813127687138,0.22133199849752,0.224269084699504,0,0.250465968667075,0.141644020238982,0.183118326040473,1500
23,2,17,12,Treasure_Collect,3,117,29.9145299145299,66.6666666666667,78,59,82,17,17,6,0.0731707317073171,35,19,16,3,13,0.207317073170732,0.719512195121951,0.457142857142857,0.542857142857143,0.576703296703297,0.689027398915558,-0.236879307074677,661.428571428571,87.5195056290095,584.671428571428,618.671428571428,630.371428571429,1246.1,1280.1,1291.8,,,"",0,1229.90243902451,1167.58644067797,1389.75652173957,1190.23142857143,1215.27894736842,1160.4875,1389.75652173957,286.199732973633,231.744534182189,350.517299306899,205.640920297591,184.347041620922,230.942130918837,0.232701167094709,0.198481693610303,0.252214897950725,0.172773895362863,0.151691133973899,0.199004410576449,1500
26,2,1,1,AB_Driving,0,84,29.7619047619048,73.8095238095238,62,48,59,5,5,6,0.101694915254237,25,14,11,6,5,0.0847457627118644,0.813559322033898,0.44,0.56,NaN,1.04205834553089,-0.370059957268666,264,75.7187779440036,NaN,NaN,NaN,NaN,NaN,NaN,stop RT larger than all go rt,stop RT larger than all go rt,"stop RT larger than all go rt",1,994.135593220339,965.375,1119.63636363636,1214.32,1269.07142857143,1144.63636363636,1119.63636363636,290.541554843004,206.058618493183,518.406071092396,367.151617182874,143.438791173053,535.943518055265,0.292255459742511,0.21344930052382,0.463012892336502,0.302351618340202,0.113026570407089,0.468221642332453,1500
26,2,1,1,HR_Driving,1,19,31.5789473684211,73.6842105263158,14,12,13,0,0,1,0.0769230769230769,6,2,4,0,4,0,0.923076923076923,0.666666666666667,0.333333333333333,0.666666666666667,0.99534957297739,-0.928402085784153,108.333333333333,58.4522597225006,743.666666666667,743.666666666667,743.666666666667,852,852,852,,,"",0,750.230769230769,750.583333333333,746,636,693.5,607.25,746,177.702538832996,185.599499574822,0,60.8177605638353,62.9325035256027,39.2205303380768,0.236863837263298,0.247273675463291,0,0.0956254096915649,0.0907462199359809,0.0645871228292742,1500
26,2,1,1,Mining,1,100,30,70,70,51,70,13,13,6,0.0857142857142857,30,19,11,0,11,0.185714285714286,0.728571428571429,0.366666666666667,0.633333333333333,NaN,0.949192961587679,-0.133901653706044,498.333333333333,150.564073503227,NaN,NaN,NaN,NaN,NaN,NaN,stop RT larger than all go rt,stop RT larger than all go rt,"stop RT larger than all go rt",1,1301.44285714286,1251.80392156863,1434.68421052632,1317,1308.84210526316,1331.09090909091,1434.68421052632,227.047823329525,220.801451046667,190.956380310495,262.766449335816,227.953763137736,326.122509050036,0.174458541981611,0.176386610748097,0.1330999385854,0.199518944066678,0.174164448271553,0.245003933858107,1500
26,2,3,2,AB_Driving,1,81,29.6296296296296,65.4320987654321,53,36,57,17,17,4,0.0701754385964912,24,17,7,4,3,0.298245614035088,0.631578947368421,0.291666666666667,0.708333333333333,NaN,0.884560423069921,0.106242071163138,395.833333333333,150.301629100103,NaN,NaN,NaN,NaN,NaN,NaN,stop RT larger than all go rt,stop RT larger than all go rt,"stop RT larger than all go rt",1,1183.22807017544,1054.11111111111,1404.57142857143,1273.33333333333,1276.76470588235,1265,1404.57142857143,333.309059579837,244.078883943904,354.061798479951,251.851693189303,180.999492199483,394.549109744275,0.28169468590313,0.23154948408297,0.25207817222942,0.197789287845002,0.141764172651058,0.311896529442115,1500
26,2,3,2,HR_Driving,2,17,23.5294117647059,94.1176470588235,16,13,13,0,0,0,0,4,3,1,0,1,0,1,0.25,0.75,NaN,6.40521861946316,-2.5281195595355,175,28.8675134594813,NaN,NaN,NaN,NaN,NaN,NaN,stop RT larger than all go rt,stop RT larger than all go rt,"stop RT larger than all go rt",1,819.615384615385,819.615384615385,NaN,910.5,885.666666666667,985,NaN,212.118103290572,212.118103290572,NaN,66.4554988946237,54.077105445219,0,0.258802003076249,0.258802003076249,NaN,0.0729879175119426,0.0610580791628366,0,1500
26,2,3,2,Treasure_Collect,2,115,29.5652173913043,66.9565217391304,77,59,81,12,12,9,0.111111111111111,34,18,16,9,7,0.148148148148148,0.728395061728395,0.470588235294118,0.529411764705882,NaN,0.719422023084255,-0.285919737733855,375,76.1278828383828,NaN,NaN,NaN,NaN,NaN,NaN,stop RT larger than all go rt,stop RT larger than all go rt,"stop RT larger than all go rt",1,1228.375,1202.8813559322,1300,1277.05882352941,1212.5,1349.6875,1300,274.325057808747,222.772582720412,382.138979953629,245.938639942478,144.601379051271,314.234459971107,0.22332354355042,0.185199131752914,0.293953061502791,0.192582076417417,0.119258869320636,0.232820160200867,1500
26,2,4,3,AB_Driving,2,82,30.4878048780488,46.3414634146341,38,27,57,15,15,15,0.263157894736842,25,11,14,6,8,0.263157894736842,0.473684210526316,0.56,0.44,0.76,-0.216981027872618,-0.0424787015604684,310,122.474487139159,898,1189,1231,1208,1499,1541,,,"",0,1083.84210526316,1142.18518518519,1031.33333333333,1047.72,1162.63636363636,957.428571428571,1031.33333333333,480.276214777708,195.641555487627,636.462927020313,536.849025952983,367.884566875881,638.759340053431,0.443123783847737,0.171287071505753,0.617126302863911,0.512397421021822,0.316422725438634,0.66716135189108,1500
26,2,4,3,HR_Driving,3,15,33.3333333333333,80,12,8,10,1,1,1,0.1,5,4,1,0,1,0.1,0.8,0.2,0.8,NaN,1.68324246714583,-0,350,79.0569415042095,NaN,NaN,NaN,NaN,NaN,NaN,stop RT larger than all go rt,stop RT larger than all go rt,"stop RT larger than all go rt",1,944.4,865.125,978,961.4,965.25,946,978,255.10224529697,157.466039422564,0,49.4853513678543,56.2694410848375,0,0.270120971301324,0.182015361274457,0,0.0514721774161164,0.0582951992590909,0,1500
26,2,7,4,AB_Driving,3,80,30,67.5,54,40,56,15,15,1,0.0178571428571429,24,14,10,9,1,0.267857142857143,0.714285714285714,0.416666666666667,0.583333333333333,NaN,0.776377216180788,-0.177760213842469,470.833333333333,93.1532942621143,NaN,NaN,NaN,NaN,NaN,NaN,stop RT larger than all go rt,stop RT larger than all go rt,"stop RT larger than all go rt",1,1213.94642857143,1097.525,1505,1416.20833333333,1365.85714285714,1486.7,1505,267.567590077237,208.67764215012,150.935306229744,200.580891015519,107.579564218129,276.830092294895,0.220411365592228,0.190134750598045,0.100289240019764,0.141632333530627,0.078763408589782,0.18620440727443,1500
26,2,7,4,HR_Driving,3,125,48.8,58.4,73,38,64,14,14,12,0.1875,61,35,26,13,13,0.21875,0.59375,0.426229508196721,0.573770491803279,0.545573770491803,0.423183931549369,-0.0256101435541033,218.852459016393,96.6798558931442,1010.14754098361,1067.14754098361,1080.14754098361,1229,1286,1299,,,"",0,1191.71875,1117.36842105263,1018,1084.68852459016,1021.4,1169.88461538462,1018,348.422725770483,296.623650990897,436.770170476627,401.749944658101,263.946095209743,528.642663955385,0.292369928534298,0.265466291513285,0.429047318739319,0.370382773994863,0.25841599296039,0.45187590041227,1500
26,2,7,4,Treasure_Collect,3,123,29.2682926829268,60.9756097560976,75,57,87,16,16,12,0.137931034482759,36,18,18,5,13,0.183908045977011,0.655172413793103,0.5,0.5,0.612676056338028,0.462562266323816,-0.231281133161908,427.777777777778,92.1523927636363,716.222222222222,763.222222222222,767.222222222222,1144,1191,1195,,,"",0,1096.38823529412,1039.75438596491,1211.67857142857,1088.30555555556,1106.27777777778,1070.33333333333,1211.67857142857,368.988162609125,272.216187766645,499.336749251884,374.214210575742,223.996535045563,487.289984928651,0.336548816131852,0.261808164929281,0.412103309430623,0.343850317280346,0.20247765935922,0.455269372402975,1500
26,2,9,5,HR_Driving,3,146,30.1369863013699,73.2876712328767,107,86,102,5,5,9,0.0882352941176471,44,21,23,1,22,0.0490196078431373,0.843137254901961,0.522727272727273,0.477272727272727,0.549671977507029,1.03573615436735,-0.574867751542048,175,85.2492924338092,427,436,436,602,611,611,,,"",0,673.61,638.767441860465,525.444444444444,669.363636363636,784.285714285714,564.434782608696,525.444444444444,345.75158639542,288.88152158927,293.606075852966,312.398529826298,197.901779389965,361.977501320801,0.513281552226689,0.452248349959537,0.558776629874539,0.466709741693504,0.252333780642942,0.641309700383487,1500
26,2,9,5,Mining,3,104,29.8076923076923,33.6538461538462,35,22,73,34,34,15,0.205479452054795,31,13,18,7,11,0.465753424657534,0.301369863013699,0.580645161290323,0.419354838709677,NaN,-0.646864293736241,0.119887915335634,117.741935483871,81.187424207585,NaN,NaN,NaN,NaN,NaN,NaN,stop RT larger than all go rt,stop RT larger than all go rt,"stop RT larger than all go rt",1,1299.87323943662,1202.31818181818,1343.67346938776,1440.58064516129,992.538461538462,1764.16666666667,1343.67346938776,333.346106260979,231.790008898374,363.625745544962,920.90639315092,339.830745956625,1072.70555413979,0.256445087219009,0.19278591341591,0.270620618646767,0.639260562221293,0.342385468296994,0.608052274429734,1500
26,2,10,6,Chest_Picking,4,106,50,35.8490566037736,38,12,53,21,21,20,0.377358490566038,53,26,27,21,6,0.39622641509434,0.226415094339623,0.509433962264151,0.490566037735849,NaN,-0.774354681739483,0.363527699939122,261.320754716981,126.202488940607,NaN,NaN,NaN,NaN,NaN,NaN,stop RT larger than all go rt,stop RT larger than all go rt,"stop RT larger than all go rt",1,1190.75471698113,1085.08333333333,1221.68292682927,1253.67924528302,1056.69230769231,1443.37037037037,1221.68292682927,407.100720180587,253.242771891226,439.867732336915,319.80804179917,259.84761214693,251.91270590427,0.341884616852656,0.233385551239898,0.360050650358632,0.255095586053969,0.245906599542119,0.174530883462454,1500
26,2,10,6,HR_Driving,4,61,29.5081967213115,73.7704918032787,45,40,43,1,1,2,0.0465116279069767,18,5,13,1,12,0.0232558139534884,0.930232558139535,0.722222222222222,0.277777777777778,0.739417989417989,0.888069494169063,-1.03349054493431,125,71.2287119900726,666,666,666,791,791,791,,,"",0,683.255813953488,652.325,876.5,497.666666666667,676.6,428.846153846154,876.5,299.742674800145,271.841619377241,234.052344572747,354.659737511554,81.2914509650308,396.886811352609,0.438697583948476,0.41672727455983,0.267030627008268,0.71264515240098,0.120146986350917,0.925475972660791,1500
26,2,13,7,AB_Driving,5,78,46.1538461538462,70.5128205128205,55,34,42,5,5,3,0.0714285714285714,36,21,15,5,10,0.119047619047619,0.80952380952381,0.416666666666667,0.583333333333333,NaN,1.08657124349477,-0.332857227499458,404.166666666667,165.345957659344,NaN,NaN,NaN,NaN,NaN,NaN,stop RT larger than all go rt,stop RT larger than all go rt,"stop RT larger than all go rt",1,1066.09523809524,1029.38235294118,1222.125,1214.30555555556,1232.57142857143,1188.73333333333,1222.125,285.06052498303,190.717626381197,519.716251567004,288.157677019712,172.057714569435,405.086140163276,0.267387485467376,0.185273844880159,0.425256214844638,0.2373024447606,0.139592489799032,0.340771246842529,1500
26,2,13,7,Mining,5,108,30.5555555555556,62.037037037037,67,45,75,13,13,17,0.226666666666667,33,22,11,1,10,0.173333333333333,0.6,0.333333333333333,0.666666666666667,0.403225806451613,0.684074402431257,0.0886900980798288,475.757575757576,217.270429175117,614.242424242424,647.242424242424,664.242424242424,1090,1123,1140,,,"",0,1133.54666666667,1115.88888888889,1160.03333333333,1058.75757575758,979.318181818182,1217.63636363636,1160.03333333333,347.047208149964,289.329335958981,423.218740486348,445.069589383435,259.236862892319,671.639973903768,0.30616049462745,0.259281491947707,0.364833258084263,0.420369685728079,0.264711579653331,0.551593229277397,1500
26,2,15,8,HR_Driving,5,58,43.1034482758621,65.5172413793103,38,29,33,1,1,2,0.0606060606060606,25,9,16,4,12,0.0303030303030303,0.878787878787879,0.64,0.36,NaN,0.976718942867743,-0.846818264685065,98,58.5946527708232,NaN,NaN,NaN,NaN,NaN,NaN,stop RT larger than all go rt,stop RT larger than all go rt,"stop RT larger than all go rt",1,763.34375,748.827586206897,589,880.6,853.444444444444,895.875,589,250.483739653186,192.792647489754,494.974746830583,397.743950299687,215.531384670024,477.130712349003,0.328140159205058,0.257459328476831,0.840364595637663,0.451673802293535,0.2525429582125,0.532586256284641,1500
26,2,15,8,Treasure_Collect,5,126,30.1587301587302,45.2380952380952,57,35,88,20,20,33,0.375,38,22,16,10,6,0.227272727272727,0.397727272727273,0.421052631578947,0.578947368421053,0.544891640866873,-0.0600328746198892,0.229217762099212,260.526315789474,197.332855970614,919.473684210526,1005.47368421053,1038.47368421053,1180,1266,1299,,,"",0,1143.77272727273,1107.45714285714,1167.75471698113,1134.28947368421,985.090909090909,1339.4375,1167.75471698113,390.062851619026,375.693268415569,400.993473266489,363.715727122807,285.043841087632,367.45538844872,0.341031782204768,0.339239555082297,0.343388442311869,0.320655119844713,0.289357904389438,0.274335598673862,1500
26,2,18,9,HR_Driving,5,112,39.2857142857143,81.25,91,65,68,2,2,1,0.0147058823529412,44,26,18,1,17,0.0294117647058824,0.955882352941177,0.409090909090909,0.590909090909091,0.421487603305785,1.93466502246863,-0.737448393655085,246.590909090909,119.299177989296,478.409090909091,521.409090909091,521.409090909091,725,768,768,,,"",0,814.823529411765,787.907692307692,1094,805.590909090909,906.269230769231,660.166666666667,1094,290.111761335126,263.184982656978,0,310.661433762,177.599675155628,399.794395687995,0.356042444607071,0.334030223624469,0,0.385631752116684,0.195967896874181,0.605596156053515,1500
26,2,18,9,Mining,5,120,30,68.3333333333333,82,64,84,8,8,11,0.130952380952381,36,18,18,3,15,0.0952380952380952,0.761904761904762,0.5,0.5,NaN,0.751451543849005,-0.375725771924503,458.333333333333,70.2037850017464,NaN,NaN,NaN,NaN,NaN,NaN,stop RT larger than all go rt,stop RT larger than all go rt,"stop RT larger than all go rt",1,1102.09638554217,1121.9375,1035.26315789474,1106.13888888889,1140.72222222222,1071.55555555556,1035.26315789474,301.350157500873,195.979256676871,522.643902789277,322.25191146748,193.681304498959,416.840528432386,0.273433577547417,0.174679299583864,0.504841593949988,0.291330423967989,0.16978831544252,0.389005055567345,1500
51,2,2,1,AB_Driving,0,85,30.5882352941176,76.4705882352941,65,50,59,8,8,1,0.0169491525423729,26,15,11,2,9,0.135593220338983,0.847457627118644,0.423076923076923,0.576923076923077,NaN,1.2196184335518,-0.415781074351973,336.538461538462,74.2397364053676,NaN,NaN,NaN,NaN,NaN,NaN,stop RT larger than all go rt,stop RT larger than all go rt,"stop RT larger than all go rt",1,926.016949152542,824.36,1490.77777777778,1080.19230769231,1194.8,923.909090909091,1490.77777777778,303.998723427754,193.34897708231,132.747672086724,273.902029087887,120.387588349345,347.41342937355,0.328286349084607,0.234544346016679,0.0890459155385345,0.253567838927721,0.100759615290714,0.376025555752145,1500
51,2,2,1,Mining,0,100,30,75,75,56,70,9,9,5,0.0714285714285714,30,19,11,0,11,0.128571428571429,0.8,0.366666666666667,0.633333333333333,0.420765027322404,1.18231606066071,-0.250463203242559,435,103.515782571448,625,638,641,1060,1073,1076,,,"",0,1157.71428571429,1138.23214285714,1235.64285714286,975.833333333333,967.842105263158,989.636363636364,1235.64285714286,233.084120092591,156.191024194609,420.678135165822,102.066605479084,119.764242093417,63.7326803567412,0.201331298204361,0.137222468346874,0.340452852322187,0.104594301088728,0.123743574951053,0.0644000995704715,1500
51,2,4,2,AB_Driving,0,83,30.1204819277108,75.9036144578313,63,48,58,7,7,3,0.0517241379310345,25,15,10,2,8,0.120689655172414,0.827586206896552,0.4,0.6,NaN,1.19801669453028,-0.345661244129338,556,89.3495010245347,NaN,NaN,NaN,NaN,NaN,NaN,stop RT larger than all go rt,stop RT larger than all go rt,"stop RT larger than all go rt",1,1106.57241378276,1046.72083331875,1393.86000001,1195.159999992,1305.46666666667,1029.69999998,1393.86000001,237.690241296008,189.11670376824,245.415829405895,257.522709355256,110.190164628938,327.509280605051,0.214798632548119,0.1806753985861,0.176069210253637,0.215471325476907,0.0844067240033737,0.318062815005741,1500
51,2,4,2,Chest_Picking,0,112,50.8928571428571,67.8571428571429,76,34,55,7,7,14,0.254545454545455,57,42,15,3,12,0.127272727272727,0.618181818181818,0.263157894736842,0.736842105263158,0.301535087719298,0.934349055354621,0.16646547310239,611.40350877193,161.747583294943,437.69649122807,453.59649122807,453.59649122807,1049.1,1065,1065,,,"",0,1155.44000000909,1110.77352944118,1227.75714283333,1011.43157896947,957.338095266667,1162.89333333733,1227.75714283333,245.496106615584,217.288144517229,275.568992424348,280.567737635916,219.540796713222,374.651393161868,0.212469800780354,0.195618763643517,0.224449105454527,0.2773966558586,0.229324204059872,0.322171761090652,1500
52,2,3,1,AB_Driving,1,86,30.2325581395349,63.953488372093,55,42,60,14,14,4,0.0666666666666667,26,13,13,6,7,0.233333333333333,0.7,0.5,0.5,0.652173913043478,0.524400512708041,-0.26220025635402,175,100.249688278817,868,1051,1080,1043,1226,1255,,,"",0,1119.03333333333,1006.06904761905,1382.61666666667,1118.11538461538,1096.84615384615,1139.38461538462,1382.61666666667,310.696968103489,192.796076379587,374.551509455367,397.77041890247,171.81668824353,546.924665510333,0.277647643594313,0.191633046296232,0.270900473345493,0.355750778833346,0.156646114535794,0.48001759732881,1500
52,2,3,1,Conveyor_Belt,1,114,48.2456140350877,26.3157894736842,30,14,59,1,1,41,0.694915254237288,55,16,36,1,35,0.0169491525423729,0.23728813559322,0.709090909090909,0.290909090909091,NaN,-1.10957047757899,0.00405437200728065,69.0909090909091,34.0083174615513,NaN,NaN,NaN,NaN,NaN,NaN,stop RT larger than all go rt,stop RT larger than all go rt,"stop RT larger than all go rt",1,510.446428571429,468.928571428571,524.285714285714,550.230769230769,643.3125,508.861111111111,524.285714285714,347.479648567842,303.941913551236,363.173363541522,334.219466195059,314.558467008387,338.584883029165,0.680736761231386,0.648162496529673,0.692701238362576,0.607416896482003,0.488966819404857,0.665377792949938,1500
52,2,3,1,HR_Driving,2,16,18.75,68.75,11,11,13,0,0,2,0.153846153846154,3,0,3,0,3,0,0.846153846153846,1,0,NaN,-4.71065263648088,-3.37540255102664,66.6666666666667,28.8675134594813,NaN,NaN,NaN,NaN,NaN,NaN,stop RT larger than all go rt,stop RT larger than all go rt,"stop RT larger than all go rt",1,543.923076923077,601.363636363636,228,605.333333333333,NaN,605.333333333333,228,260.136330135585,221.272353775736,294.156420973604,585.711817648691,NaN,585.711817648691,0.478259410516562,0.36795100401105,1.2901597411123,0.967585601842551,NaN,0.967585601842551,1500
52,2,3,1,Treasure_Collect,2,150,30,41.3333333333333,62,44,105,2,2,55,0.523809523809524,45,18,27,0,27,0.019047619047619,0.419047619047619,0.6,0.4,NaN,-0.360981495518902,-0.0728563553763489,212.222222222222,145.053107655107,NaN,NaN,NaN,NaN,NaN,NaN,stop RT larger than all go rt,stop RT larger than all go rt,"stop RT larger than all go rt",1,678.613861386139,781.977272727273,598.824561403509,704.8,908.222222222222,569.185185185185,598.824561403509,389.989537559587,358.203624605839,397.736547891719,372.910396256746,314.442841631981,350.628779923356,0.574685487212114,0.458074214045309,0.66419544809504,0.529101016255316,0.346217956286741,0.616018809079296,1500
52,2,4,2,AB_Driving,2,81,29.6296296296296,72.8395061728395,59,46,57,9,9,2,0.0350877192982456,24,13,11,3,8,0.157894736842105,0.807017543859649,0.458333333333333,0.541666666666667,NaN,0.971591656817619,-0.381162372794734,337.5,44.8427203146441,NaN,NaN,NaN,NaN,NaN,NaN,stop RT larger than all go rt,stop RT larger than all go rt,"stop RT larger than all go rt",1,1142.33333333333,981.195652173913,1816.18181818182,1156.5,1233.76923076923,1065.18181818182,1816.18181818182,782.174928674922,197.794238716817,1622.06521559288,271.720284563884,136.657817099348,361.204047093002,0.684716891165674,0.201584911509329,0.893118298704657,0.234950527076424,0.110764487953833,0.339100837929762,1500
52,2,4,2,HR_Driving,3,18,27.7777777777778,77.7777777777778,14,13,13,0,0,0,0,5,1,4,1,3,0,1,0.8,0.2,NaN,4.88910763569417,-3.28617505142,60,22.3606797749979,NaN,NaN,NaN,NaN,NaN,NaN,stop RT larger than all go rt,stop RT larger than all go rt,"stop RT larger than all go rt",1,812.846153846154,812.846153846154,NaN,858,697,898.25,NaN,205.425512109964,205.425512109964,NaN,420.357585871838,0,474.131047285452,0.252723730238434,0.252723730238434,NaN,0.489927256260884,0,0.527838627648709,1500
52,2,4,2,Mining,3,112,29.4642857142857,64.2857142857143,72,55,79,5,5,19,0.240506329113924,33,17,16,0,16,0.0632911392405063,0.69620253164557,0.484848484848485,0.515151515151515,0.517608517608518,0.551497894791214,-0.237760596165325,224.242424242424,103.923959672154,648.757575757576,667.757575757576,667.757575757576,873,892,892,,,"",0,882.20253164557,872.018181818182,905.541666666667,792.515151515152,850.882352941176,730.5,905.541666666667,299.28698943454,233.521074543375,418.234381882224,263.825595945044,212.958001244653,303.563282803877,0.339249751274553,0.267793813721265,0.461861002400652,0.332896595655812,0.250279019782862,0.4155554863845,1500
52,2,6,3,Chest_Picking,3,107,50.4672897196262,52.3364485981308,56,37,53,10,10,6,0.113207547169811,54,19,35,5,30,0.188679245283019,0.69811320754717,0.648148148148148,0.351851851851852,NaN,0.138655940447565,-0.449653611987414,150,107.28203000626,NaN,NaN,NaN,NaN,NaN,NaN,stop RT larger than all go rt,stop RT larger than all go rt,"stop RT larger than all go rt",1,1148.94339622642,1097.43243243243,1268.0625,1158.77777777778,1171.57894736842,1151.82857142857,1268.0625,367.168448823317,324.313937458799,439.590031544544,306.30054710567,186.828297817801,357.251393255776,0.319570528913124,0.295520642432596,0.346662748519528,0.264330705144408,0.159467100563263,0.310160211439008,1500
52,2,6,3,HR_Driving,3,102,30.3921568627451,82.3529411764706,84,68,71,2,2,0,0,31,16,15,1,14,0.028169014084507,0.957746478873239,0.483870967741935,0.516129032258065,NaN,1.94885219045412,-0.933985586661413,138.709677419355,61.5219167172085,NaN,NaN,NaN,NaN,NaN,NaN,stop RT larger than all go rt,stop RT larger than all go rt,"stop RT larger than all go rt",1,644.914285714286,618.735294117647,NaN,754.645161290323,955.25,540.666666666667,NaN,279.61291788995,237.006745772569,NaN,348.202675500643,211.770158426536,341.63214692052,0.433566016575768,0.383050309277338,NaN,0.461412453642812,0.221690822744345,0.631872034994797,1500
56,2,1,1,AB_Driving,0,88,30.6818181818182,81.8181818181818,72,59,61,2,2,0,0,27,13,14,3,11,0.0327868852459016,0.967213114754098,0.518518518518519,0.481481481481481,NaN,1.79489047536671,-0.943880962453881,211.111111111111,100.320000817896,NaN,NaN,NaN,NaN,NaN,NaN,stop RT larger than all go rt,stop RT larger than all go rt,"stop RT larger than all go rt",1,794.229508196721,768.745762711864,1546,1062.37037037037,1131.84615384615,997.857142857143,1546,233.23853265435,190.07154671246,1.4142135623731,294.003813181466,138.985518522522,381.754423105273,0.293666415371436,0.24724890325503,0.000914756508650126,0.276743235110151,0.122795415304661,0.382574225016021,1500
56,2,1,1,HR_Driving,1,13,30.7692307692308,61.5384615384615,8,8,9,1,1,0,0,4,0,4,0,4,0.111111111111111,0.888888888888889,1,0,1.125,-4.51008852041973,-3.47568460905722,125,64.5497224367903,1422,1422,0,1547,1547,1547,,,"took last RT, length(RT) < n3",0,1055.11111111111,993.625,NaN,707.5,NaN,707.5,NaN,253.98939172948,186.657009741703,NaN,270.378130279306,NaN,270.378130279306,0.240722886011512,0.187854582706457,NaN,0.382159901454849,NaN,0.382159901454849,1500
56,2,1,1,Mining,1,103,30.0970873786408,77.6699029126214,80,62,72,5,5,5,0.0694444444444444,31,18,13,0,13,0.0694444444444444,0.861111111111111,0.419354838709677,0.580645161290323,0.450649975926817,1.28886913960925,-0.440890338272136,379.032258064516,64.2575463121999,682.967741935484,691.967741935484,691.967741935484,1062,1071,1071,,,"",0,1129.13888888889,1111.03225806452,1241.4,1034.06451612903,1006.44444444444,1072.30769230769,1241.4,202.348416961031,168.155272482518,339.261682022725,162.484037263946,157.036609527925,168.339629229813,0.179205958586856,0.151350486236516,0.27328957791423,0.157131431095031,0.156031075927504,0.156988176469696,1500
56,2,3,2,AB_Driving,1,91,29.6703296703297,85.7142857142857,78,63,64,0,0,1,0.015625,27,15,12,0,12,0,0.984375,0.444444444444444,0.555555555555556,NaN,2.29358499294332,-1.0070821975898,322.222222222222,73.8154316435117,NaN,NaN,NaN,NaN,NaN,NaN,stop RT larger than all go rt,stop RT larger than all go rt,"stop RT larger than all go rt",1,702.90625,703.936507936508,638,832.740740740741,999.4,624.416666666667,638,170.819845576728,171.991360718503,0,299.448286609352,174.337849345131,296.720394351724,0.243019386407117,0.244327945460127,0,0.359593654974759,0.174442514854044,0.475196147366967,1500
56,2,3,2,Chest_Picking,1,111,50.4504504504505,76.5765765765766,85,49,55,2,2,4,0.0727272727272727,56,36,20,3,17,0.0363636363636364,0.890909090909091,0.357142857142857,0.642857142857143,0.370619946091644,1.59748356256399,-0.432635424481426,300.892857142857,84.4721963018125,753.107142857143,755.107142857143,755.107142857143,1054,1056,1056,,,"",0,1094.12727272727,1090.0612244898,1127.33333333333,1014.33928571429,925.138888888889,1174.9,1127.33333333333,198.515327754648,180.977715958262,331.204871139702,211.646727680024,135.650423152998,231.427583308018,0.181437144199705,0.16602527628021,0.293794977356329,0.208654767355269,0.146627090031764,0.196976409318255,1500
57,2,1,1,AB_Driving,0,90,30,73.3333333333333,66,52,63,4,4,7,0.111111111111111,27,14,13,2,11,0.0634920634920635,0.825396825396825,0.481481481481482,0.518518518518518,NaN,0.982565548743157,-0.444847049601051,187.037037037037,80.3748341218441,NaN,NaN,NaN,NaN,NaN,NaN,stop RT larger than all go rt,stop RT larger than all go rt,"stop RT larger than all go rt",1,759.484126961905,723.628846132692,928.981818154545,965.592592603704,1101.44999998571,819.284615423077,928.981818154545,260.648482979586,164.740696223367,494.483914452509,300.875363811283,146.998936446801,357.780549214377,0.343191481857869,0.227659106051113,0.532285890626814,0.311596594791575,0.133459472920884,0.436698727742641,1500
57,2,1,1,HR_Driving,1,14,28.5714285714286,50,7,6,10,0,0,4,0.4,4,1,3,0,3,0,0.6,0.75,0.25,NaN,-0.421142647060282,-0.463918426665941,125,64.5497224367903,NaN,NaN,NaN,NaN,NaN,NaN,stop RT larger than all go rt,stop RT larger than all go rt,"stop RT larger than all go rt",1,541.189999968,605.81666665,444.249999945,579.32500005,679,546.100000066667,444.249999945,196.521678057435,147.430789593732,242.389940812346,206.830194134295,0,239.884743293712,0.363128805168341,0.243358754735131,0.545616073927642,0.357019279534706,0,0.439268894459673,1500
57,2,1,1,Mining,1,111,29.7297297297297,77.4774774774775,86,69,78,2,2,7,0.0897435897435897,33,17,16,0,16,0.0256410256410256,0.884615384615385,0.484848484848485,0.515151515151515,0.497607655502392,1.23636805353721,-0.580195675538321,260.606060606061,46.3640077228146,650.393939693939,657.793939193939,657.793939193939,911.0000003,918.3999998,918.3999998,,,"",0,873.779487189744,891.950724647826,734.466666677778,842.475757593939,871.105882358824,812.05625003125,734.466666677778,279.630072590491,236.129551692707,503.973722050087,183.67466312499,93.3019993451921,246.514345609195,0.32002361773202,0.264733852630636,0.686176439197326,0.218017742907586,0.107107529905026,0.303568066374353,1500
57,2,2,2,AB_Driving,1,102,29.4117647058824,83.3333333333333,85,68,72,4,4,0,0,30,17,13,2,11,0.0555555555555556,0.944444444444444,0.433333333333333,0.566666666666667,NaN,1.76111282281116,-0.712662406617472,485,124.67198341358,NaN,NaN,NaN,NaN,NaN,NaN,stop RT larger than all go rt,stop RT larger than all go rt,"stop RT larger than all go rt",1,961.530555577777,929.242647082353,1510.425,1053.03333332667,1228.57647057059,823.476923084615,1510.425,247.291079338513,213.906678145385,7.45626135092733,328.96505036389,171.683395156663,348.545494741601,0.257184837136993,0.230194641643936,0.00493653200319601,0.312397566109942,0.139741724889886,0.423260792100894,1500
57,2,2,2,Chest_Picking,1,117,51.2820512820513,51.2820512820513,60,36,57,4,4,17,0.298245614035088,60,24,36,6,30,0.0701754385964912,0.631578947368421,0.6,0.4,NaN,0.0826910372360233,-0.294692621753811,120.833333333333,71.4805097690004,NaN,NaN,NaN,NaN,NaN,NaN,stop RT larger than all go rt,stop RT larger than all go rt,"stop RT larger than all go rt",1,906.924561396491,942.133333358333,846.566666604762,930.593333365,843.691666675,988.527777825,846.566666604762,268.561993586681,194.791127703583,359.852247948327,265.239091913846,178.950981675388,298.19166183409,0.296123850889148,0.206755371884816,0.425072545546294,0.285021482965872,0.212104716383695,0.30165228385406,1500
57,2,3,3,AB_Driving,1,100,27,81,81,64,73,3,3,6,0.0821917808219178,27,17,10,1,9,0.0410958904109589,0.876712328767123,0.37037037037037,0.62962962962963,NaN,1.48958029297801,-0.413917574762584,618.518518518518,104.833336730396,NaN,NaN,NaN,NaN,NaN,NaN,stop RT larger than all go rt,stop RT larger than all go rt,"stop RT larger than all go rt",1,1054.48630134805,1085.24374997812,835.766666645333,1149.71111112593,1271.11764705882,943.32000004,835.766666645333,306.617945108539,223.601612070318,625.310412926925,228.918625636953,93.689115131469,246.19539569432,0.290774706808954,0.206038147720109,0.748187787192861,0.199109692358083,0.0737060927037333,0.260988207272061,1500
57,2,3,3,Treasure_Collect,1,119,30.2521008403361,78.9915966386555,94,74,83,7,7,2,0.0240963855421687,36,20,16,3,13,0.0843373493975904,0.891566265060241,0.444444444444444,0.555555555555556,0.485380116959064,1.37461098016318,-0.547595191199727,269.444444444444,98.7621802815645,661.155555655556,673.155555755555,680.655555555556,930.6000001,942.6000002,950.1,,,"",0,1006.37831326867,966.836486502703,1331.50000001111,979.102777761111,943.875,1023.1374999625,1331.50000001111,238.333421932756,171.183214007526,425.97263997482,232.225691307605,204.356512163651,263.083266633181,0.23682289134258,0.177054979199989,0.319919369110976,0.237182139181169,0.216508025070747,0.257133832591244,1500
57,2,4,4,AB_Driving,1,96,29.1666666666667,79.1666666666667,76,62,68,1,1,5,0.0735294117647059,28,14,14,5,9,0.0147058823529412,0.911764705882353,0.5,0.5,NaN,1.35170223993066,-0.675851119965331,835.714285714286,46.8590140289699,NaN,NaN,NaN,NaN,NaN,NaN,stop RT larger than all go rt,stop RT larger than all go rt,"stop RT larger than all go rt",1,1138.5323688175,1165.38227968226,861.083289881667,1333.61427634643,1434.54288078571,1232.68567190714,861.083289881667,228.563076846409,167.733096063581,505.448244128935,231.264880865293,60.1396182865273,292.444686539978,0.200752374817238,0.143929677830105,0.58699111928928,0.173412121456038,0.041922496073166,0.2372418964581,1500
57,2,4,4,Conveyor_Belt,1,97,50.5154639175258,52.5773195876289,51,28,48,1,1,19,0.395833333333333,49,23,26,0,26,0.0208333333333333,0.583333333333333,0.530612244897959,0.469387755102041,NaN,0.133619418478517,-0.143618685008666,159.183673469388,76.1532647224737,NaN,NaN,NaN,NaN,NaN,NaN,stop RT larger than all go rt,stop RT larger than all go rt,"stop RT larger than all go rt",1,794.443725741667,866.742845039286,693.224958725,797.561168865306,689.026087247826,893.572971834615,693.224958725,236.553713861549,192.600380184199,259.268423618462,241.067047503755,204.450106848365,233.172126630394,0.297760188917988,0.22221167591579,0.374003302038225,0.302255246261202,0.296723318074935,0.260943575936124,1500
57,2,5,5,HR_Driving,2,94,29.7872340425532,59.5744680851064,56,48,66,0,0,18,0.272727272727273,28,8,20,0,20,0,0.727272727272727,0.714285714285714,0.285714285714286,0.714285714285714,0.038636524650374,-0.58526708425805,87.5,44.3575539518648,465.4,465.4,465.4,552.9,552.9,552.9,,,"",0,441.933333313636,442.91458331875,439.316666633333,435.414285728571,566.8124999375,382.855000045,439.316666633333,172.045875249928,172.615381096431,175.465962063121,184.199818481626,258.295265400032,116.01040556045,0.389302780036799,0.389726117851048,0.399406567949696,0.423044958603981,0.455697899090993,0.303013949267514,1500
57,2,5,5,Mining,2,113,30.9734513274336,83.1858407079646,94,74,78,1,1,3,0.0384615384615385,35,20,15,0,15,0.0128205128205128,0.948717948717949,0.428571428571429,0.571428571428571,0.434137291280148,1.81256033563905,-0.726267798026822,300,55.5718930226211,527.7000003,527.7000003,527.7000003,827.7000003,827.7000003,827.7000003,,,"",0,849.682051294872,854.971621635135,751.825,764.914285722857,809.659999975,705.253333386667,751.825,217.545538298579,192.864630313788,544.171641827662,120.092832122007,78.3502286944635,141.493658955407,0.256031697935776,0.225580154280366,0.723800940149186,0.15700168550064,0.0967692966144836,0.200628132129411,1500
57,2,6,6,Chest_Picking,3,120,50,64.1666666666667,77,47,60,2,2,11,0.183333333333333,60,30,30,4,26,0.0333333333333333,0.783333333333333,0.5,0.5,0.517241379310345,0.783500375389774,-0.391750187694887,148.333333333333,70.6907005287325,696.066666466667,697.666666566667,705.566666666667,844.3999998,845.9999999,853.9,,,"",0,852.42333327,875.146808461702,770.269230653846,819.928333349833,794.493333336667,845.363333363,770.269230653846,232.769458514689,182.974551420772,358.775747966061,276.652811277929,194.139329544999,341.590662915549,0.273067910543646,0.209078693599303,0.465779669871419,0.337410966331238,0.244356146740293,0.404075560690151,1500
57,2,6,6,HR_Driving,3,85,30.5882352941176,65.8823529411765,56,52,59,0,0,4,0.0677966101694915,26,4,22,0,22,0,0.88135593220339,0.846153846153846,0.153846153846154,0.846153846153846,0.472327945534157,-1.25624020555328,57.6923076923077,18.397324220156,436.507692407692,436.507692407692,436.507692407692,494.2000001,494.2000001,494.2000001,,,"",0,331.169642871429,335.611538476923,273.425,283.649999939538,454.799999925,252.531818124,273.425,150.671984427266,155.394026288617,30.201255383179,137.992290350658,80.2164986359207,123.108536645725,0.454969190777435,0.463017532096271,0.110455354788988,0.486487891345222,0.176377525613784,0.487497130303301,1500
57,2,7,7,AB_Driving,3,96,31.25,81.25,78,62,66,2,2,2,0.0303030303030303,30,16,14,7,7,0.0303030303030303,0.939393939393939,0.466666666666667,0.533333333333333,NaN,1.63335763464372,-0.73302708341473,936.666666666667,54.0327699630979,NaN,NaN,NaN,NaN,NaN,NaN,stop RT larger than all go rt,stop RT larger than all go rt,"stop RT larger than all go rt",1,1233.65909091667,1234.76935484355,1216.45000005,1407.41333333333,1435.81875,1374.95,1216.45000005,157.831254536327,134.5093824212,414.035252029285,178.755777789194,52.9737950153973,256.739591959051,0.127937495616435,0.108934824057278,0.340363559548084,0.127010149439061,0.0368944861706238,0.186726493297248,1500
57,2,7,7,Treasure_Collect,3,127,29.1338582677165,79.5275590551181,101,83,90,2,2,5,0.0555555555555556,37,18,19,0,19,0.0222222222222222,0.922222222222222,0.513513513513513,0.486486486486487,0.525184275184275,1.38629923386748,-0.72702945233723,402.702702702703,67.6448506970473,423.997297397297,426.897297097297,426.897297097297,826.7000001,829.5999998,829.5999998,,,"",0,827.005555555556,815.562650607229,962.685714228571,768.794594575676,859.527777783333,682.836842063158,962.685714228571,254.79593878233,239.175756233683,397.370760693498,158.386903154683,106.113960956518,153.31824281767,0.308094591470025,0.293264724734027,0.412773093877188,0.20601979289683,0.123456115903758,0.224531298508186,1500
57,2,8,8,AB_Driving,3,80,30,70,56,43,56,12,12,1,0.0178571428571429,24,13,11,5,6,0.214285714285714,0.767857142857143,0.458333333333333,0.541666666666667,0.583333333333333,0.836441539473693,-0.313587314122771,954.166666666667,48.7153816139944,414.733333333333,460.633333333333,467.933333333333,1368.9,1414.8,1422.1,,,"",0,1342.70535714107,1296.77209302093,1494.63846153846,1261.66250000417,1395.77692307692,1103.16363637273,1494.63846153846,197.392838060142,200.818838435745,69.7733060042967,348.808216663984,87.7793840056437,468.584539386369,0.147011283607624,0.154860549140846,0.0466823969807907,0.276467134961079,0.0628892644335588,0.424764308699573,1500
57,2,8,8,Conveyor_Belt,3,100,50,45,45,32,50,1,1,17,0.34,50,13,37,1,36,0.02,0.64,0.74,0.26,0.755102040816326,-0.284886612141723,-0.500902099322055,154,110.120527660582,695.4000002,697.1999999,697.1999999,849.4000002,851.1999999,851.1999999,,,"",0,678.69600002,734.8093750125,578.938888922222,653.154000014,465.830769246154,718.970270283784,578.938888922222,282.606185907383,207.574907391616,367.651812792637,221.717820504983,123.583908089577,211.414495277177,0.416395832447892,0.282488104330575,0.635044250485701,0.339457188504137,0.265297864049579,0.294051790477692,1500
57,2,8,8,Mining,4,19,31.5789473684211,68.4210526315789,13,10,13,0,0,2,0.153846153846154,6,3,3,0,3,0,0.769230769230769,0.5,0.5,0.5,1.0200762327862,-0.510038116393101,441.666666666667,37.638632635454,476.133333233333,476.133333233333,476.133333233333,917.7999999,917.7999999,917.7999999,,,"",0,925.608333391667,965.66000003,725.3500002,916.533333366667,932.8666667,900.200000033333,725.3500002,303.921899157251,319.658575433586,13.0814753105297,82.4602853783808,127.203393538485,4.26731773717402,0.328348274527308,0.33102600855752,0.0180347078057804,0.0899697614657206,0.136357528979425,0.00474041072763386,1500
57,2,9,9,HR_Driving,5,135,30.3703703703704,62.962962962963,85,79,94,0,0,6,0.0638297872340425,41,6,35,1,34,0,0.840425531914894,0.853658536585366,0.146341463414634,0.853658536585366,0.471142125162403,-1.28782528813743,57.3170731707317,17.8919521355137,359.782926829268,359.782926829268,359.782926829268,417.1,417.1,417.1,,,"",0,294.530588235294,299.020253164557,235.416666666667,282.826829268244,408.866666666667,261.219999999943,235.416666666667,131.835886457304,132.385938694552,118.649794212492,250.86721290799,202.886713874188,254.367906087008,0.447613564510262,0.442732347703877,0.503999125858373,0.886999347116598,0.496217301176067,0.973768877142115,1500
57,2,9,9,Mining,5,128,30.46875,75.78125,97,79,89,5,5,5,0.0561797752808989,39,18,21,3,18,0.0561797752808989,0.887640449438202,0.538461538461538,0.461538461538462,0.57051282051282,1.11751634410521,-0.655316787342242,342.307692307692,88.5099321950141,557.792307692308,571.792307692308,571.792307692308,900.1,914.1,914.1,,,"",0,935.942696629214,899.008860759493,1227.72,926.176923076923,860.955555555556,982.080952380952,1227.72,284.779958471784,239.821772599545,433.529806228925,506.714965793102,234.301294772407,658.841109539354,0.304270720309497,0.266762412549462,0.353117816952501,0.547103855826709,0.272140987139826,0.670862323459245,1500
57,2,10,10,Chest_Picking,6,167,50.2994011976048,66.4670658682635,111,68,83,0,0,15,0.180722891566265,84,43,41,4,37,0,0.819277108433735,0.488095238095238,0.511904761904762,0.488095238095238,0.942458873145131,-0.441384193653326,242.857142857143,86.4782363953592,598.742857142857,598.742857142857,598.742857142857,841.6,841.6,841.6,,,"",0,839.693975903615,845.319117647059,814.193333333333,789.072619047619,739.658139534884,840.89756097561,814.193333333333,238.369553910646,205.829095355181,359.448129511789,238.490199516347,112.207172830223,315.314289628463,0.283876698834395,0.243492772206673,0.441477613234927,0.302241129345225,0.151701396676013,0.374973485786587,1500
57,2,10,10,HR_Driving,6,127,28.3464566929134,66.1417322834646,84,78,91,1,1,4,0.043956043956044,36,6,30,0,30,0.010989010989011,0.857142857142857,0.833333333333333,0.166666666666667,0.842592592592593,0.631265693492881,-1.28305441284814,58.3333333333333,18.8982236504614,545.266666666667,545.266666666667,545.266666666667,603.6,603.6,603.6,,,"",0,393.90843373494,372.375641025641,533.075,326.894444444444,571.6,277.953333333333,533.075,256.420340031097,223.550091534109,237.378830493932,182.516300554962,235.525072975257,125.591685792683,0.650964330973532,0.600334895479148,0.445300999847923,0.558334054484001,0.412045264127461,0.451844503127683,1500
57,2,11,11,HR_Driving,7,76,28.9473684210526,76.3157894736842,58,52,54,0,0,0,0,22,6,16,0,16,0,0.962962962962963,0.727272727272727,0.272727272727273,0.727272727272727,5.12614352268384,-3.16765710792516,84.0909090909091,52.067638327842,505.909090909091,505.909090909091,505.909090909091,590,590,590,,,"",0,482.403846153846,482.403846153846,NaN,401.772727272727,673.333333333333,299.9375,NaN,199.067163719162,199.067163719162,NaN,207.175548248841,100.428415633558,127.155793550012,0.412656667865115,0.412656667865115,NaN,0.515653587676717,0.149151112327066,0.423940966201333,1500
57,2,11,11,Treasure_Collect,7,120,30,82.5,99,80,84,3,3,1,0.0119047619047619,36,19,17,0,17,0.0357142857142857,0.952380952380952,0.472222222222222,0.527777777777778,0.489711934156379,1.73807611426553,-0.799353136814312,461.111111111111,100.079333610257,418.888888888889,430.888888888889,430.888888888889,880,892,892,,,"",0,935.25,905.6125,1528,846.444444444444,896.894736842105,790.058823529412,1528,232.683189911669,195.45607125679,2.44948974278318,184.627415460658,91.260247361806,242.478728600117,0.248792504583447,0.215827488309613,0.00160306920339213,0.218121126167751,0.101751346744576,0.30691224675765,1500
57,2,13,12,AB_Driving,8,88,42.0454545454545,68.1818181818182,60,36,51,7,7,8,0.156862745098039,37,24,13,3,10,0.137254901960784,0.705882352941177,0.351351351351351,0.648648648648649,NaN,0.92306973889465,-0.0798602156817625,974.324324324324,36.5559343518441,NaN,NaN,NaN,NaN,NaN,NaN,stop RT larger than all go rt,stop RT larger than all go rt,"stop RT larger than all go rt",1,1280.35294117647,1239.47222222222,1378.46666666667,1345.35135135135,1382.375,1277,1378.46666666667,167.112396132592,150.643663962556,168.500897270467,177.923706529921,105.61900870582,256.489116078376,0.130520570350734,0.121538555896372,0.122237919381777,0.132250736100427,0.0764040211272771,0.200852870852291,1500
57,2,13,12,Conveyor_Belt,8,92,48.9130434782609,38.0434782608696,35,28,47,3,3,16,0.340425531914894,45,7,38,0,38,0.0638297872340425,0.595744680851064,0.844444444444444,0.155555555555556,0.902020202020202,-0.77054548570289,-0.627620594593247,52.2222222222222,10.4204538569996,1206.77777777778,1447.77777777778,1447.77777777778,1259,1500,1500,,,"",0,933.702127659574,979.035714285714,866.894736842105,876.822222222222,811.714285714286,888.815789473684,866.894736842105,306.74326574895,257.108059447393,365.227310457602,299.752343905377,269.541409487617,306.788496142825,0.328523687225428,0.262613565261993,0.421305257646435,0.341862165794206,0.332064390428251,0.345165443476753,1500
57,2,13,12,HR_Driving,8,89,30.3370786516854,84.2696629213483,75,61,62,1,1,0,0,27,14,13,0,13,0.0161290322580645,0.983870967741935,0.481481481481482,0.518518518518518,0.489374620522162,2.18763384574255,-1.04738119810075,214.814814814815,105.443034944152,467.185185185185,472.185185185185,472.185185185185,682,687,687,,,"",0,710.241935483871,696.737704918033,NaN,593.37037037037,763.142857142857,410.538461538462,NaN,311.404680333963,295.11703337486,NaN,225.99679169747,105.439634310427,169.640608043699,0.438448738065304,0.423569775672724,NaN,0.38086969451543,0.13816500190434,0.413214896864922,1500
57,2,13,12,Mining,8,109,29.3577981651376,81.651376146789,89,72,77,1,1,4,0.051948051948052,32,17,15,0,15,0.012987012987013,0.935064935064935,0.46875,0.53125,0.474917763157895,1.59302662906888,-0.718100901801329,428.125,65.9147788019965,447.875,447.875,447.875,876,876,876,,,"",0,907.103896103896,902.055555555556,979.8,869.125,854.764705882353,885.4,979.8,204.83450215746,189.306509704734,392.448340549428,360.362787631683,52.7749104828288,532.759634893099,0.22581151182047,0.209861253598892,0.400539233057183,0.414627110751253,0.0617420327718732,0.601716325833634,1500
57,2,15,13,AB_Driving,8,73,43.8356164383562,68.4931506849315,50,27,41,13,13,1,0.024390243902439,32,23,9,4,5,0.317073170731707,0.658536585365854,0.28125,0.71875,0.411830357142857,0.98760464422968,0.0853298401407162,978.125,30.9461029908869,348.875,404.875,411.875,1327,1383,1390,,,"",0,1412.19512195122,1353.07407407407,1526.21428571429,1405.28125,1384.47826086957,1458.44444444444,1526.21428571429,118.127519975701,101.799548860239,30.815027731059,107.472797571022,98.8027739605143,116.140121309467,0.0836481574957472,0.0752357545021336,0.020190498817561,0.0764777851914144,0.0713646264828009,0.079632873059973,1500
57,2,15,13,Chest_Picking,8,116,50.8620689655172,74.1379310344828,86,43,57,2,2,12,0.210526315789474,59,43,16,1,15,0.0350877192982456,0.754385964912281,0.271186440677966,0.728813559322034,0.281047765793529,1.29758554791942,-0.039564106945714,761.016949152542,197.411655625342,131.983050847458,131.983050847458,143.983050847458,893,893,905,,,"",0,984.157894736842,998.581395348837,939.857142857143,876.35593220339,829.813953488372,1001.4375,939.857142857143,192.535598700389,141.763423410463,303.242440997262,241.961863816983,218.72708106483,263.66973502218,0.195634866854238,0.141964815357831,0.322647376042079,0.276099989656745,0.26358568706316,0.263291253844778,1500
57,2,15,13,Mining,9,18,27.7777777777778,66.6666666666667,12,10,13,2,2,1,0.0769230769230769,5,2,3,0,3,0.153846153846154,0.769230769230769,0.6,0.4,0.709090909090909,0.48296881424033,-0.494831510255965,450,35.3553390593274,541,543,700,991,993,1150,,,"",0,1004.76923076923,923.9,1274.33333333333,809.6,857.5,777.666666666667,1274.33333333333,280.781099152036,166.216358333883,454.979486717075,80.7174082834676,68.5893577750951,82.7909012714159,0.279448345504247,0.179907304182144,0.357033340348215,0.0997003560813582,0.0799875892420934,0.106460653156557,1500
